"acc","accuracy","average_response_time","avg_rt","background","bidi","canvas_backend","clock_backend","color_backend","compensation","cond","cond_name","coordinates","correct","correct_instructions_p1","correct_instructions_p2","correct_response","correct_response_exp_1","correct_response_prac","correct_start_next_block","count_ITI_1","count_ITI_prac","count_RSVP_exp_1","count_RSVP_prac","count_break_1","count_experiment","count_experiment_end","count_experiment_loop_1","count_experiment_trial_1","count_feedback","count_feedback_prac","count_fixation_cross_exp_1","count_fixation_cross_prac","count_instructions_p1","count_instructions_p2","count_logger","count_practice_end","count_practice_loop","count_practice_trial","count_question_exp_1","count_question_prac","count_reset_feedback_exp_1","count_reset_feedback_prac","count_response_exp_1","count_response_prac","count_select","count_start_next_block","count_trigger_break_1","count_trigger_exp_end","count_trigger_fix_1","count_trigger_pracend","count_trigger_pracfix","count_trigger_question_1","count_trigger_question_prac","count_trigger_response_1","count_trigger_response_prac","count_triggers","datetime","delay_ITI_1","delay_ITI_prac","description","disable_garbage_collection","exp_question","exp_sentence","experiment_file","experiment_path","font_bold","font_family","font_italic","font_size","font_underline","foreground","form_clicks","fullscreen","height","is_question","isi","item","keyboard_backend","live_row","live_row_practice_loop","logfile","lst","mouse_backend","np_in_question","opensesame_codename","opensesame_version","practice_question","practice_sentence","question_type","repeat_cycle","response","response_break_1","response_experiment_end","response_feedback","response_feedback_prac","response_instructions_p1","response_instructions_p2","response_practice_end","response_response_exp_1","response_response_prac","response_start_next_block","response_time","response_time_break_1","response_time_experiment_end","response_time_feedback","response_time_feedback_prac","response_time_instructions_p1","response_time_instructions_p2","response_time_practice_end","response_time_response_exp_1","response_time_response_prac","response_time_start_next_block","round_decimals","sampler_backend","session","sound_buf_size","sound_channels","sound_freq","sound_sample_size","start","subject_nr","subject_parity","target_np_gender","time_ITI_1","time_ITI_prac","time_RSVP_exp_1","time_RSVP_prac","time_break_1","time_experiment","time_experiment_end","time_experiment_loop_1","time_experiment_trial_1","time_feedback","time_feedback_prac","time_fixation_cross_exp_1","time_fixation_cross_prac","time_instructions_p1","time_instructions_p2","time_logger","time_practice_end","time_practice_loop","time_practice_trial","time_question_exp_1","time_question_prac","time_reset_feedback_exp_1","time_reset_feedback_prac","time_response_exp_1","time_response_prac","time_select","time_start_next_block","time_trigger_break_1","time_trigger_exp_end","time_trigger_fix_1","time_trigger_pracend","time_trigger_pracfix","time_trigger_question_1","time_trigger_question_prac","time_trigger_response_1","time_trigger_response_prac","time_triggers","title","total_correct","total_response_time","total_responses","type","uniform_coordinates","width","word_dur","word_no_distractor","word_no_post","word_no_precrit","word_no_prepre","word_no_subject","word_no_verb","words_in_sentence"
"0","0","2832","2832","#000000","no","xpyriment","legacy","legacy","0","NA","NA","uniform","0","undefined","undefined","j","NA","0","NA","NA","0","NA","0","NA","0","0","0","NA","NA","NA","NA","0","0","0","0","0","0","0","NA","0","NA","0","NA","0","0","NA","NA","0","NA","0","0","NA","0","NA","0","0","Wed Jul 13 14:07:34 2022","NA","1000","The main experiment item","yes","NA","NA","opensesame_pandora_session1.osexp","/home/vlab/Desktop/Pandora_Session1","no","Times New Roman","no","45","no","#ffffff","no","yes","1020","yes","395","NA","legacy","0","0","/home/vlab/Desktop/Pandora_Session1/logs/subject-1.csv","NA","xpyriment","NA","Lentiform Loewenfeld","3.3.12b1","War es der Pendler, der hetzte?","Der Radfahrer sah, wie der Pendler, der spät dran war, zur Bahn hetzte.","NA","0","f","NA","NA","NA","NA","space","space","NA","NA","f","NA","2832","NA","NA","NA","NA","148725","17303","NA","NA","2832","NA","2","legacy","NA","1024","2","48000","-16","experiment","1","odd","NA","NA","NA","NA","169134","NA","1283","NA","NA","NA","NA","NA","NA","168639","1290","150021","181500","NA","167324","168635","NA","178668","NA","NA","NA","178668","NA","NA","NA","NA","NA","NA","169134","NA","178668","NA","181500","1283","pandora_session1","0","2832","1","NA","yes","1920","330","NA","NA","NA","NA","NA","NA","NA"
"50","50","2697","2697","#000000","no","xpyriment","legacy","legacy","0","NA","NA","uniform","1","undefined","undefined","f","NA","1","NA","NA","1","NA","1","NA","0","0","0","NA","NA","NA","NA","1","0","0","1","0","0","1","NA","1","NA","1","NA","1","0","NA","NA","0","NA","1","1","NA","1","NA","1","0","Wed Jul 13 14:07:34 2022","NA","1000","The main experiment item","yes","NA","NA","opensesame_pandora_session1.osexp","/home/vlab/Desktop/Pandora_Session1","no","Times New Roman","no","45","no","#ffffff","no","yes","1020","yes","395","NA","legacy","1","1","/home/vlab/Desktop/Pandora_Session1/logs/subject-1.csv","NA","xpyriment","NA","Lentiform Loewenfeld","3.3.12b1","War es das Kind, das ein Buch las?","Das Kind mit der blauen Hose spielte im Sandkasten und die Mutter las ein Buch.","NA","0","f","NA","NA","NA","NA","space","space","NA","NA","f","NA","2562","NA","NA","NA","NA","148725","17303","NA","NA","2562","NA","2","legacy","NA","1024","2","48000","-16","experiment","1","odd","NA","NA","181513","NA","184513","NA","1283","NA","NA","NA","NA","NA","NA","184018","1290","150021","197476","NA","167324","184014","NA","194914","NA","NA","NA","194914","NA","NA","NA","NA","NA","182513","184513","NA","194914","NA","197476","1283","pandora_session1","1","5394","2","NA","yes","1920","290","NA","NA","NA","NA","NA","NA","NA"
"100","100","2046","2046","#000000","no","xpyriment","legacy","legacy","0","d","HiSyn/HiSem","uniform","1","undefined","undefined","f","1","1","NA","0","1","0","1","NA","0","0","0","0","NA","0","0","1","0","0","2","0","0","1","0","1","0","1","0","1","0","NA","0","0","0","1","1","0","1","0","1","0","Wed Jul 13 14:07:34 2022","1000","1000","The main experiment item","yes","War es der Ersttäter, der das ahnte?","Der Vormund ahnte, dass der Ersttäter, der gedacht hatte, dass der Bewährungshelfer überflüssig war, ganz bewusst provozierte, um ihn zu ärgern.","opensesame_pandora_session1.osexp","/home/vlab/Desktop/Pandora_Session1","no","Times New Roman","no","45","no","#ffffff","no","yes","1020","yes","395","12","legacy","0","1","/home/vlab/Desktop/Pandora_Session1/logs/subject-1.csv","1","xpyriment","target","Lentiform Loewenfeld","3.3.12b1","War es das Kind, das ein Buch las?","Das Kind mit der blauen Hose spielte im Sandkasten und die Mutter las ein Buch.","intro_verb","0","f","NA","NA","NA","space","space","space","space","f","f","NA","2046","NA","NA","NA","4364","148725","17303","6063","2046","2562","NA","2","legacy","1","1024","2","48000","-16","experiment","1","odd","masc","NA","197479","211639","184513","NA","1283","NA","209100","211123","NA","198632","211144","184018","1290","150021","229708","203037","167324","184014","227661","194914","NA","NA","227662","194914","209100","NA","NA","NA","211639","202996","184513","227661","194914","229708","197476","1283","pandora_session1","1","2046","1","experimental","yes","1920","330","12","18","16","15","6","17","21"
"100","100","2046","2046","#000000","no","xpyriment","legacy","legacy","0","d","HiSyn/HiSem","uniform","1","undefined","undefined","NA","1","1","NA","1","1","1","1","NA","0","0","0","1","NA","0","1","1","0","0","3","0","0","1","1","1","1","1","1","1","0","NA","1","0","1","1","1","1","1","1","1","0","Wed Jul 13 14:07:34 2022","1000","1000","The main experiment item","yes","NA","Der Sachbearbeiter hoffte, dass der Asylbewerber, der berichtet hatte, dass der Dolmetscher notwendig war, noch pünktlich anrief, um einen guten Eindruck zu machen.","opensesame_pandora_session1.osexp","/home/vlab/Desktop/Pandora_Session1","no","Times New Roman","no","45","no","#ffffff","no","yes","1020","no","395","24","legacy","1","1","/home/vlab/Desktop/Pandora_Session1/logs/subject-1.csv","1","xpyriment","NA","Lentiform Loewenfeld","3.3.12b1","War es das Kind, das ein Buch las?","Das Kind mit der blauen Hose spielte im Sandkasten und die Mutter las ein Buch.","NA","0","f","NA","NA","NA","space","space","space","space","f","f","NA","2046","NA","NA","NA","4364","148725","17303","6063","2046","2562","NA","2","legacy","1","1024","2","48000","-16","experiment","1","odd","masc","229711","197479","233306","184513","NA","1283","NA","209100","232789","NA","198632","232810","184018","1290","150021","250936","203037","167324","184014","227661","194914","NA","NA","227662","194914","209100","NA","NA","NA","233306","202996","184513","227661","194914","229708","197476","1283","pandora_session1","1","2046","1","experimental","yes","1920","330","12","18","16","15","6","17","23"
"100","100","2046","2046","#000000","no","xpyriment","legacy","legacy","0","b","LoSyn/HiSem","uniform","1","undefined","undefined","NA","1","1","NA","2","1","2","1","NA","0","0","0","2","NA","0","2","1","0","0","4","0","0","1","2","1","2","1","2","1","0","NA","2","0","2","1","1","2","1","2","1","0","Wed Jul 13 14:07:34 2022","1000","1000","The main experiment item","yes","NA","Der Anästhesist wusste, dass die Ärztin, die vor dem riskanten Wunderheiler gewarnt hatte, dennoch konzentriert operierte, weil es ihre Berufsehre verlangte.","opensesame_pandora_session1.osexp","/home/vlab/Desktop/Pandora_Session1","no","Times New Roman","no","45","no","#ffffff","no","yes","1020","no","395","50","legacy","2","1","/home/vlab/Desktop/Pandora_Session1/logs/subject-1.csv","1","xpyriment","NA","Lentiform Loewenfeld","3.3.12b1","War es das Kind, das ein Buch las?","Das Kind mit der blauen Hose spielte im Sandkasten und die Mutter las ein Buch.","NA","0","f","NA","NA","NA","space","space","space","space","f","f","NA","2046","NA","NA","NA","4364","148725","17303","6063","2046","2562","NA","2","legacy","1","1024","2","48000","-16","experiment","1","odd","fem","250938","197479","254326","184513","NA","1283","NA","209100","253826","NA","198632","253831","184018","1290","150021","270607","203037","167324","184014","227661","194914","NA","NA","227662","194914","209100","NA","NA","NA","254326","202996","184513","227661","194914","229708","197476","1283","pandora_session1","1","2046","1","experimental","yes","1920","390","11","17","15","14","6","16","21"
"100","100","2046","2046","#000000","no","xpyriment","legacy","legacy","0","d","HiSyn/HiSem","uniform","1","undefined","undefined","NA","1","1","NA","3","1","3","1","NA","0","0","0","3","NA","0","3","1","0","0","5","0","0","1","3","1","3","1","3","1","0","NA","3","0","3","1","1","3","1","3","1","0","Wed Jul 13 14:07:34 2022","1000","1000","The main experiment item","yes","NA","Der Klinikleiter befürwortete, dass die Urologin, die beklagt hatte, dass der Pfleger stümperhaft war, auch weiterhin praktizierte, weil sie recht hatte.","opensesame_pandora_session1.osexp","/home/vlab/Desktop/Pandora_Session1","no","Times New Roman","no","45","no","#ffffff","no","yes","1020","no","395","44","legacy","3","1","/home/vlab/Desktop/Pandora_Session1/logs/subject-1.csv","1","xpyriment","NA","Lentiform Loewenfeld","3.3.12b1","War es das Kind, das ein Buch las?","Das Kind mit der blauen Hose spielte im Sandkasten und die Mutter las ein Buch.","NA","0","f","NA","NA","NA","space","space","space","space","f","f","NA","2046","NA","NA","NA","4364","148725","17303","6063","2046","2562","NA","2","legacy","1","1024","2","48000","-16","experiment","1","odd","fem","270609","197479","273991","184513","NA","1283","NA","209100","273491","NA","198632","273496","184018","1290","150021","290092","203037","167324","184014","227661","194914","NA","NA","227662","194914","209100","NA","NA","NA","273991","202996","184513","227661","194914","229708","197476","1283","pandora_session1","1","2046","1","experimental","yes","1920","310","12","18","16","15","6","17","21"
"100","100","2046","2046","#000000","no","xpyriment","legacy","legacy","0","f","filler","uniform","1","undefined","undefined","NA","1","1","NA","4","1","4","1","NA","0","0","0","4","NA","0","4","1","0","0","6","0","0","1","4","1","4","1","4","1","0","NA","4","0","4","1","1","4","1","4","1","0","Wed Jul 13 14:07:34 2022","1000","1000","The main experiment item","yes","NA","Sie vermutete, dass die eingeschnappte Taxifahrerin, die sich gegenüber dem Kunden unhöflich benommen hatte, auch das Taxameter manipulieren würde.","opensesame_pandora_session1.osexp","/home/vlab/Desktop/Pandora_Session1","no","Times New Roman","no","45","no","#ffffff","no","yes","1020","no","395","160","legacy","4","1","/home/vlab/Desktop/Pandora_Session1/logs/subject-1.csv","NA","xpyriment","filler_question","Lentiform Loewenfeld","3.3.12b1","War es das Kind, das ein Buch las?","Das Kind mit der blauen Hose spielte im Sandkasten und die Mutter las ein Buch.","filler_question","0","f","NA","NA","NA","space","space","space","space","f","f","NA","2046","NA","NA","NA","4364","148725","17303","6063","2046","2562","NA","2","legacy","1","1024","2","48000","-16","experiment","1","odd","filler","290094","197479","293320","184513","NA","1283","NA","209100","292821","NA","198632","292824","184018","1290","150021","307184","203037","167324","184014","227661","194914","NA","NA","227662","194914","209100","NA","NA","NA","293320","202996","184513","227661","194914","229708","197476","1283","pandora_session1","1","2046","1","filler","yes","1920","310","filler","filler","filler","filler","filler","filler","19"
"100","100","2527","2527","#000000","no","xpyriment","legacy","legacy","0","f","filler","uniform","1","undefined","undefined","f","1","1","NA","5","1","5","1","NA","0","0","0","5","NA","0","5","1","0","0","7","0","0","1","5","1","5","1","5","1","0","NA","5","0","5","1","1","5","1","5","1","0","Wed Jul 13 14:07:34 2022","1000","1000","The main experiment item","yes","War die Taschenlampe klein?","Die Biologin, der kein Arbeitsplatz zugewiesen worden war, durchsuchte den Keller des Instituts mit der großen Taschenlampe nach einem Mikroskop.","opensesame_pandora_session1.osexp","/home/vlab/Desktop/Pandora_Session1","no","Times New Roman","no","45","no","#ffffff","no","yes","1020","yes","395","131","legacy","5","1","/home/vlab/Desktop/Pandora_Session1/logs/subject-1.csv","NA","xpyriment","filler_question","Lentiform Loewenfeld","3.3.12b1","War es das Kind, das ein Buch las?","Das Kind mit der blauen Hose spielte im Sandkasten und die Mutter las ein Buch.","filler_question","0","f","NA","NA","NA","space","space","space","space","f","f","NA","3008","NA","NA","NA","4364","148725","17303","6063","3008","2562","NA","2","legacy","1","1024","2","48000","-16","experiment","1","odd","filler","307188","197479","310501","184513","NA","1283","NA","209100","310003","NA","198632","310006","184018","1290","150021","327907","203037","167324","184014","324899","194914","NA","NA","324899","194914","209100","NA","NA","NA","310501","202996","184513","324899","194914","327907","197476","1283","pandora_session1","2","5054","2","filler","yes","1920","390","filler","filler","filler","filler","filler","filler","20"
"100","100","2527","2527","#000000","no","xpyriment","legacy","legacy","0","d","HiSyn/HiSem","uniform","1","undefined","undefined","NA","1","1","NA","6","1","6","1","NA","0","0","0","6","NA","0","6","1","0","0","8","0","0","1","6","1","6","1","6","1","0","NA","6","0","6","1","1","6","1","6","1","0","Wed Jul 13 14:07:34 2022","1000","1000","The main experiment item","yes","NA","Der Assistent hoffte, dass die Dichterin, die geträumt hatte, dass der Kritiker hartnäckig war, dennoch weiter schrieb, um das Werk zu vollenden.","opensesame_pandora_session1.osexp","/home/vlab/Desktop/Pandora_Session1","no","Times New Roman","no","45","no","#ffffff","no","yes","1020","no","395","60","legacy","6","1","/home/vlab/Desktop/Pandora_Session1/logs/subject-1.csv","1","xpyriment","NA","Lentiform Loewenfeld","3.3.12b1","War es das Kind, das ein Buch las?","Das Kind mit der blauen Hose spielte im Sandkasten und die Mutter las ein Buch.","NA","0","f","NA","NA","NA","space","space","space","space","f","f","NA","3008","NA","NA","NA","4364","148725","17303","6063","3008","2562","NA","2","legacy","1","1024","2","48000","-16","experiment","1","odd","fem","327910","197479","331390","184513","NA","1283","NA","209100","330878","NA","198632","330895","184018","1290","150021","348122","203037","167324","184014","324899","194914","NA","NA","324899","194914","209100","NA","NA","NA","331390","202996","184513","324899","194914","327907","197476","1283","pandora_session1","2","5054","2","experimental","yes","1920","390","12","18","16","15","6","17","22"
"100","100","2527","2527","#000000","no","xpyriment","legacy","legacy","0","a","LoSyn/LoSem","uniform","1","undefined","undefined","NA","1","1","NA","7","1","7","1","NA","0","0","0","7","NA","0","7","1","0","0","9","0","0","1","7","1","7","1","7","1","0","NA","7","0","7","1","1","7","1","7","1","0","Wed Jul 13 14:07:34 2022","1000","1000","The main experiment item","yes","NA","Der Parkwächter beobachtete, dass die Tierpflegerin, die über das unzureichende Gehege gemeckert hatte, noch geistesgegenwärtig eingriff, bevor eines der Tiere ausbrechen konnte.","opensesame_pandora_session1.osexp","/home/vlab/Desktop/Pandora_Session1","no","Times New Roman","no","45","no","#ffffff","no","yes","1020","no","395","29","legacy","7","1","/home/vlab/Desktop/Pandora_Session1/logs/subject-1.csv","1","xpyriment","NA","Lentiform Loewenfeld","3.3.12b1","War es das Kind, das ein Buch las?","Das Kind mit der blauen Hose spielte im Sandkasten und die Mutter las ein Buch.","NA","0","f","NA","NA","NA","space","space","space","space","f","f","NA","3008","NA","NA","NA","4364","148725","17303","6063","3008","2562","NA","2","legacy","1","1024","2","48000","-16","experiment","1","odd","fem","348125","197479","351596","184513","NA","1283","NA","209100","351098","NA","198632","351101","184018","1290","150021","368647","203037","167324","184014","324899","194914","NA","NA","324899","194914","209100","NA","NA","NA","351596","202996","184513","324899","194914","327907","197476","1283","pandora_session1","2","5054","2","experimental","yes","1920","330","11","17","15","14","6","16","22"
"100","100","2527","2527","#000000","no","xpyriment","legacy","legacy","0","b","LoSyn/HiSem","uniform","1","undefined","undefined","NA","1","1","NA","8","1","8","1","NA","0","0","0","8","NA","0","8","1","0","0","10","0","0","1","8","1","8","1","8","1","0","NA","8","0","8","1","1","8","1","8","1","0","Wed Jul 13 14:07:34 2022","1000","1000","The main experiment item","yes","NA","Der Auszubildende bemerkte, dass der Schreiner, der auf den pünktlichen Spediteur gewartet hatte, laut ungehalten schimpfte, als der Termin verstrich.","opensesame_pandora_session1.osexp","/home/vlab/Desktop/Pandora_Session1","no","Times New Roman","no","45","no","#ffffff","no","yes","1020","no","395","54","legacy","8","1","/home/vlab/Desktop/Pandora_Session1/logs/subject-1.csv","1","xpyriment","NA","Lentiform Loewenfeld","3.3.12b1","War es das Kind, das ein Buch las?","Das Kind mit der blauen Hose spielte im Sandkasten und die Mutter las ein Buch.","NA","0","f","NA","NA","NA","space","space","space","space","f","f","NA","3008","NA","NA","NA","4364","148725","17303","6063","3008","2562","NA","2","legacy","1","1024","2","48000","-16","experiment","1","odd","masc","368650","197479","371957","184513","NA","1283","NA","209100","371458","NA","198632","371462","184018","1290","150021","387544","203037","167324","184014","324899","194914","NA","NA","324899","194914","209100","NA","NA","NA","371957","202996","184513","324899","194914","327907","197476","1283","pandora_session1","2","5054","2","experimental","yes","1920","390","11","17","15","14","6","16","20"
"100","100","2527","2527","#000000","no","xpyriment","legacy","legacy","0","c","HiSyn/LoSem","uniform","1","undefined","undefined","NA","1","1","NA","9","1","9","1","NA","0","0","0","9","NA","0","9","1","0","0","11","0","0","1","9","1","9","1","9","1","0","NA","9","0","9","1","1","9","1","9","1","0","Wed Jul 13 14:07:34 2022","1000","1000","The main experiment item","yes","NA","Der Inhaber respektierte, dass der Personalchef, der bezweifelt hatte, dass die Qualifikation ausreichend war, letztendlich intuitiv entschied, weil er viel Erfahrung hatte.","opensesame_pandora_session1.osexp","/home/vlab/Desktop/Pandora_Session1","no","Times New Roman","no","45","no","#ffffff","no","yes","1020","no","395","51","legacy","9","1","/home/vlab/Desktop/Pandora_Session1/logs/subject-1.csv","1","xpyriment","NA","Lentiform Loewenfeld","3.3.12b1","War es das Kind, das ein Buch las?","Das Kind mit der blauen Hose spielte im Sandkasten und die Mutter las ein Buch.","NA","0","f","NA","NA","NA","space","space","space","space","f","f","NA","3008","NA","NA","NA","4364","148725","17303","6063","3008","2562","NA","2","legacy","1","1024","2","48000","-16","experiment","1","odd","masc","387548","197479","391013","184513","NA","1283","NA","209100","390515","NA","198632","390518","184018","1290","150021","408185","203037","167324","184014","324899","194914","NA","NA","324899","194914","209100","NA","NA","NA","391013","202996","184513","324899","194914","327907","197476","1283","pandora_session1","2","5054","2","experimental","yes","1920","310","12","18","16","15","6","17","22"
"100","100","2869.3333333333335","2869.3333333333335","#000000","no","xpyriment","legacy","legacy","0","f","filler","uniform","1","undefined","undefined","j","1","1","NA","10","1","10","1","NA","0","0","0","10","NA","0","10","1","0","0","12","0","0","1","10","1","10","1","10","1","0","NA","10","0","10","1","1","10","1","10","1","0","Wed Jul 13 14:07:34 2022","1000","1000","The main experiment item","yes","War es der Sohn des Kaisers, der strategisch plante?","Der Sohn des Kaisers, der den Feldzug gewonnen hatte, plante äußerst strategisch, weil er die Weltherrschaft an sich reißen wollte.","opensesame_pandora_session1.osexp","/home/vlab/Desktop/Pandora_Session1","no","Times New Roman","no","45","no","#ffffff","no","yes","1020","yes","395","121","legacy","10","1","/home/vlab/Desktop/Pandora_Session1/logs/subject-1.csv","NA","xpyriment","filler_question","Lentiform Loewenfeld","3.3.12b1","War es das Kind, das ein Buch las?","Das Kind mit der blauen Hose spielte im Sandkasten und die Mutter las ein Buch.","filler_question","0","j","NA","NA","NA","space","space","space","space","j","f","NA","3554","NA","NA","NA","4364","148725","17303","6063","3554","2562","NA","2","legacy","1","1024","2","48000","-16","experiment","1","odd","filler","408188","197479","411499","184513","NA","1283","NA","209100","411001","NA","198632","411004","184018","1290","150021","429179","203037","167324","184014","425624","194914","NA","NA","425624","194914","209100","NA","NA","NA","411499","202996","184513","425624","194914","429179","197476","1283","pandora_session1","3","8608","3","filler","yes","1920","330","filler","filler","filler","filler","filler","filler","20"
"100","100","2869.3333333333335","2869.3333333333335","#000000","no","xpyriment","legacy","legacy","0","a","LoSyn/LoSem","uniform","1","undefined","undefined","NA","1","1","NA","11","1","11","1","NA","0","0","0","11","NA","0","11","1","0","0","13","0","0","1","11","1","11","1","11","1","0","NA","11","0","11","1","1","11","1","11","1","0","Wed Jul 13 14:07:34 2022","1000","1000","The main experiment item","yes","NA","Der Staatsanwalt sagte, dass die Zeugin, die über den brutalen Angriff ausgesagt hatte, weiterhin bereitwillig kooperierte, weil sie Gerechtigkeit wollte.","opensesame_pandora_session1.osexp","/home/vlab/Desktop/Pandora_Session1","no","Times New Roman","no","45","no","#ffffff","no","yes","1020","no","395","37","legacy","11","1","/home/vlab/Desktop/Pandora_Session1/logs/subject-1.csv","1","xpyriment","NA","Lentiform Loewenfeld","3.3.12b1","War es das Kind, das ein Buch las?","Das Kind mit der blauen Hose spielte im Sandkasten und die Mutter las ein Buch.","NA","0","j","NA","NA","NA","space","space","space","space","j","f","NA","3554","NA","NA","NA","4364","148725","17303","6063","3554","2562","NA","2","legacy","1","1024","2","48000","-16","experiment","1","odd","fem","429182","197479","432486","184513","NA","1283","NA","209100","431987","NA","198632","431991","184018","1290","150021","448044","203037","167324","184014","425624","194914","NA","NA","425624","194914","209100","NA","NA","NA","432486","202996","184513","425624","194914","429179","197476","1283","pandora_session1","3","8608","3","experimental","yes","1920","330","11","17","15","14","6","16","20"
"75","75","3258.5","3258.5","#000000","no","xpyriment","legacy","legacy","0","a","LoSyn/LoSem","uniform","0","undefined","undefined","j","0","1","NA","12","1","12","1","NA","0","0","0","12","NA","0","12","1","0","0","14","0","0","1","12","1","12","1","12","1","0","NA","12","0","12","1","1","12","1","12","1","0","Wed Jul 13 14:07:34 2022","1000","1000","The main experiment item","yes","War es der Maurer, der besonders aufpasste?","Der Architekt erzählte, dass der Maurer, der über das schlechte Fundament genörgelt hatte, immer besonders aufpasste, um Fehler zu vermeiden.","opensesame_pandora_session1.osexp","/home/vlab/Desktop/Pandora_Session1","no","Times New Roman","no","45","no","#ffffff","no","yes","1020","yes","395","5","legacy","12","1","/home/vlab/Desktop/Pandora_Session1/logs/subject-1.csv","1","xpyriment","target","Lentiform Loewenfeld","3.3.12b1","War es das Kind, das ein Buch las?","Das Kind mit der blauen Hose spielte im Sandkasten und die Mutter las ein Buch.","main_verb","0","f","NA","NA","NA","space","space","space","space","f","f","NA","4426","NA","NA","NA","4364","148725","17303","6063","4426","2562","NA","2","legacy","1","1024","2","48000","-16","experiment","1","odd","masc","448047","197479","451359","184513","NA","1283","NA","209100","450861","NA","198632","450864","184018","1290","150021","471154","203037","167324","184014","466728","194914","NA","NA","466728","194914","209100","NA","NA","NA","451359","202996","184513","466728","194914","471154","197476","1283","pandora_session1","3","13034","4","experimental","yes","1920","390","11","17","15","14","6","16","20"
"60","60","3404","3404","#000000","no","xpyriment","legacy","legacy","0","b","LoSyn/HiSem","uniform","0","undefined","undefined","j","0","1","NA","13","1","13","1","NA","0","0","0","13","NA","0","13","1","0","0","15","0","0","1","13","1","13","1","13","1","0","NA","13","0","13","1","1","13","1","13","1","0","Wed Jul 13 14:07:34 2022","1000","1000","The main experiment item","yes","War es der Boxer, der gemeckert hatte?","Der Reporter hörte, dass der Boxer, der über den unfairen Ringrichter gemeckert hatte, angeblich häufig schummelte, um den Sieg zu holen.","opensesame_pandora_session1.osexp","/home/vlab/Desktop/Pandora_Session1","no","Times New Roman","no","45","no","#ffffff","no","yes","1020","yes","395","18","legacy","13","1","/home/vlab/Desktop/Pandora_Session1/logs/subject-1.csv","1","xpyriment","target","Lentiform Loewenfeld","3.3.12b1","War es das Kind, das ein Buch las?","Das Kind mit der blauen Hose spielte im Sandkasten und die Mutter las ein Buch.","relcl_verb","0","f","NA","NA","NA","space","space","space","space","f","f","NA","3986","NA","NA","NA","4364","148725","17303","6063","3986","2562","NA","2","legacy","1","1024","2","48000","-16","experiment","1","odd","masc","471157","197479","474541","184513","NA","1283","NA","209100","474042","NA","198632","474046","184018","1290","150021","494490","203037","167324","184014","490504","194914","NA","NA","490504","194914","209100","NA","NA","NA","474541","202996","184513","490504","194914","494490","197476","1283","pandora_session1","3","17020","5","experimental","yes","1920","310","11","17","15","14","6","16","21"
"60","60","3404","3404","#000000","no","xpyriment","legacy","legacy","0","f","filler","uniform","0","undefined","undefined","NA","0","1","NA","14","1","14","1","NA","0","0","0","14","NA","0","14","1","0","0","16","0","0","1","14","1","14","1","14","1","0","NA","14","0","14","1","1","14","1","14","1","0","Wed Jul 13 14:07:34 2022","1000","1000","The main experiment item","yes","NA","Die Schuhmacherin befestigte die Sohle mit dem ergiebigen Sekundenkleber, als sie den kleinen Schaden bemerkte, noch bevor der Kunde zurückkehrte.","opensesame_pandora_session1.osexp","/home/vlab/Desktop/Pandora_Session1","no","Times New Roman","no","45","no","#ffffff","no","yes","1020","no","395","150","legacy","14","1","/home/vlab/Desktop/Pandora_Session1/logs/subject-1.csv","NA","xpyriment","filler_question","Lentiform Loewenfeld","3.3.12b1","War es das Kind, das ein Buch las?","Das Kind mit der blauen Hose spielte im Sandkasten und die Mutter las ein Buch.","filler_question","0","f","NA","NA","NA","space","space","space","space","f","f","NA","3986","NA","NA","NA","4364","148725","17303","6063","3986","2562","NA","2","legacy","1","1024","2","48000","-16","experiment","1","odd","filler","494493","197479","497795","184513","NA","1283","NA","209100","497296","NA","198632","497300","184018","1290","150021","512213","203037","167324","184014","490504","194914","NA","NA","490504","194914","209100","NA","NA","NA","497795","202996","184513","490504","194914","494490","197476","1283","pandora_session1","3","17020","5","filler","yes","1920","450","filler","filler","filler","filler","filler","filler","20"
"60","60","3404","3404","#000000","no","xpyriment","legacy","legacy","0","c","HiSyn/LoSem","uniform","0","undefined","undefined","NA","0","1","NA","15","1","15","1","NA","0","0","0","15","NA","0","15","1","0","0","17","0","0","1","15","1","15","1","15","1","0","NA","15","0","15","1","1","15","1","15","1","0","Wed Jul 13 14:07:34 2022","1000","1000","The main experiment item","yes","NA","Der Komiker kritisierte, dass der Manager, der gehört hatte, dass der Witz einfallslos war, häufig ausgiebig lästerte, um von eigenen Fehlern abzulenken.","opensesame_pandora_session1.osexp","/home/vlab/Desktop/Pandora_Session1","no","Times New Roman","no","45","no","#ffffff","no","yes","1020","no","395","27","legacy","15","1","/home/vlab/Desktop/Pandora_Session1/logs/subject-1.csv","1","xpyriment","NA","Lentiform Loewenfeld","3.3.12b1","War es das Kind, das ein Buch las?","Das Kind mit der blauen Hose spielte im Sandkasten und die Mutter las ein Buch.","NA","0","f","NA","NA","NA","space","space","space","space","f","f","NA","3986","NA","NA","NA","4364","148725","17303","6063","3986","2562","NA","2","legacy","1","1024","2","48000","-16","experiment","1","odd","masc","512216","197479","515683","184513","NA","1283","NA","209100","515185","NA","198632","515188","184018","1290","150021","532480","203037","167324","184014","490504","194914","NA","NA","490504","194914","209100","NA","NA","NA","515683","202996","184513","490504","194914","494490","197476","1283","pandora_session1","3","17020","5","experimental","yes","1920","410","12","18","16","15","6","17","22"
"60","60","3404","3404","#000000","no","xpyriment","legacy","legacy","0","f","filler","uniform","0","undefined","undefined","NA","0","1","NA","16","1","16","1","NA","0","0","0","16","NA","0","16","1","0","0","18","0","0","1","16","1","16","1","16","1","0","NA","16","0","16","1","1","16","1","16","1","0","Wed Jul 13 14:07:34 2022","1000","1000","The main experiment item","yes","NA","Die Rettungsschwimmerin beobachtete, dass die Surferin, die den riesigen Hai gesichtet hatte, gerade so noch entkam, weil ein Boot in der Nähe war.","opensesame_pandora_session1.osexp","/home/vlab/Desktop/Pandora_Session1","no","Times New Roman","no","45","no","#ffffff","no","yes","1020","no","395","136","legacy","16","1","/home/vlab/Desktop/Pandora_Session1/logs/subject-1.csv","NA","xpyriment","filler_question","Lentiform Loewenfeld","3.3.12b1","War es das Kind, das ein Buch las?","Das Kind mit der blauen Hose spielte im Sandkasten und die Mutter las ein Buch.","filler_question","0","f","NA","NA","NA","space","space","space","space","f","f","NA","3986","NA","NA","NA","4364","148725","17303","6063","3986","2562","NA","2","legacy","1","1024","2","48000","-16","experiment","1","odd","filler","532482","197479","536032","184513","NA","1283","NA","209100","535532","NA","198632","535537","184018","1290","150021","552191","203037","167324","184014","490504","194914","NA","NA","490504","194914","209100","NA","NA","NA","536032","202996","184513","490504","194914","494490","197476","1283","pandora_session1","3","17020","5","filler","yes","1920","270","filler","filler","filler","filler","filler","filler","23"
"60","60","3404","3404","#000000","no","xpyriment","legacy","legacy","0","f","filler","uniform","0","undefined","undefined","NA","0","1","NA","17","1","17","1","NA","0","0","0","17","NA","0","17","1","0","0","19","0","0","1","17","1","17","1","17","1","0","NA","17","0","17","1","1","17","1","17","1","0","Wed Jul 13 14:07:34 2022","1000","1000","The main experiment item","yes","NA","Der Kapitän hatte beobachtet, dass die Seglerin, die das traumhafte Wetter ausnutzen wollte, den Touristen überschwänglich zugewunken hatte.","opensesame_pandora_session1.osexp","/home/vlab/Desktop/Pandora_Session1","no","Times New Roman","no","45","no","#ffffff","no","yes","1020","no","395","141","legacy","17","1","/home/vlab/Desktop/Pandora_Session1/logs/subject-1.csv","NA","xpyriment","filler_question","Lentiform Loewenfeld","3.3.12b1","War es das Kind, das ein Buch las?","Das Kind mit der blauen Hose spielte im Sandkasten und die Mutter las ein Buch.","filler_question","0","f","NA","NA","NA","space","space","space","space","f","f","NA","3986","NA","NA","NA","4364","148725","17303","6063","3986","2562","NA","2","legacy","1","1024","2","48000","-16","experiment","1","odd","filler","552195","197479","555348","184513","NA","1283","NA","209100","554850","NA","198632","554853","184018","1290","150021","568500","203037","167324","184014","490504","194914","NA","NA","490504","194914","209100","NA","NA","NA","555348","202996","184513","490504","194914","494490","197476","1283","pandora_session1","3","17020","5","filler","yes","1920","310","filler","filler","filler","filler","filler","filler","18"
"66.66666666666667","66.66666666666667","3279.8333333333335","3279.8333333333335","#000000","no","xpyriment","legacy","legacy","0","c","HiSyn/LoSem","uniform","1","undefined","undefined","j","1","1","NA","18","1","18","1","NA","0","0","0","18","NA","0","18","1","0","0","20","0","0","1","18","1","18","1","18","1","0","NA","18","0","18","1","1","18","1","18","1","0","Wed Jul 13 14:07:34 2022","1000","1000","The main experiment item","yes","War es der Wirt, der das bemerkte?","Der Wirt bemerkte, dass die Kellnerin, die geschimpft hatte, dass die Bezahlung schlecht war, stets freundlich grüßte, wenn Gäste das Restaurant betraten.","opensesame_pandora_session1.osexp","/home/vlab/Desktop/Pandora_Session1","no","Times New Roman","no","45","no","#ffffff","no","yes","1020","yes","395","15","legacy","18","1","/home/vlab/Desktop/Pandora_Session1/logs/subject-1.csv","1","xpyriment","intro","Lentiform Loewenfeld","3.3.12b1","War es das Kind, das ein Buch las?","Das Kind mit der blauen Hose spielte im Sandkasten und die Mutter las ein Buch.","intro_verb","0","j","NA","NA","NA","space","space","space","space","j","f","NA","2659","NA","NA","NA","4364","148725","17303","6063","2659","2562","NA","2","legacy","1","1024","2","48000","-16","experiment","1","odd","fem","568503","197479","571964","184513","NA","1283","NA","209100","571466","NA","198632","571469","184018","1290","150021","591442","203037","167324","184014","588782","194914","NA","NA","588782","194914","209100","NA","NA","NA","571964","202996","184513","588782","194914","591442","197476","1283","pandora_session1","4","19679","6","experimental","yes","1920","370","12","18","16","15","6","17","22"
"66.66666666666667","66.66666666666667","3279.8333333333335","3279.8333333333335","#000000","no","xpyriment","legacy","legacy","0","a","LoSyn/LoSem","uniform","1","undefined","undefined","NA","1","1","NA","19","1","19","1","NA","0","0","0","19","NA","0","19","1","0","0","21","0","0","1","19","1","19","1","19","1","0","NA","19","0","19","1","1","19","1","19","1","0","Wed Jul 13 14:07:34 2022","1000","1000","The main experiment item","yes","NA","Der Aufsichtsrat ahnte, dass der Börsenmakler, der von der raffinierten Investition gewusst hatte, wiederholt hinterhältig betrog, um Schulden zu begleichen.","opensesame_pandora_session1.osexp","/home/vlab/Desktop/Pandora_Session1","no","Times New Roman","no","45","no","#ffffff","no","yes","1020","no","395","21","legacy","19","1","/home/vlab/Desktop/Pandora_Session1/logs/subject-1.csv","1","xpyriment","NA","Lentiform Loewenfeld","3.3.12b1","War es das Kind, das ein Buch las?","Das Kind mit der blauen Hose spielte im Sandkasten und die Mutter las ein Buch.","NA","0","j","NA","NA","NA","space","space","space","space","j","f","NA","2659","NA","NA","NA","4364","148725","17303","6063","2659","2562","NA","2","legacy","1","1024","2","48000","-16","experiment","1","odd","masc","591444","197479","594754","184513","NA","1283","NA","209100","594256","NA","198632","594259","184018","1290","150021","610439","203037","167324","184014","588782","194914","NA","NA","588782","194914","209100","NA","NA","NA","594754","202996","184513","588782","194914","591442","197476","1283","pandora_session1","4","19679","6","experimental","yes","1920","410","11","17","15","14","6","16","20"
"71.42857142857143","71.42857142857143","3113.285714285714","3113.285714285714","#000000","no","xpyriment","legacy","legacy","0","c","HiSyn/LoSem","uniform","1","undefined","undefined","j","1","1","NA","20","1","20","1","NA","0","0","0","20","NA","0","20","1","0","0","22","0","0","1","20","1","20","1","20","1","0","NA","20","0","20","1","1","20","1","20","1","0","Wed Jul 13 14:07:34 2022","1000","1000","The main experiment item","yes","Vermutete es der Chefredakteur?","Der Chefredakteur vermutete, dass der Mitarbeiter, der erfahren hatte, dass die Geschichte erfunden war, auch gelegentlich schwindelte, um interessantere Artikel zu schreiben.","opensesame_pandora_session1.osexp","/home/vlab/Desktop/Pandora_Session1","no","Times New Roman","no","45","no","#ffffff","no","yes","1020","yes","395","11","legacy","20","1","/home/vlab/Desktop/Pandora_Session1/logs/subject-1.csv","1","xpyriment","intro","Lentiform Loewenfeld","3.3.12b1","War es das Kind, das ein Buch las?","Das Kind mit der blauen Hose spielte im Sandkasten und die Mutter las ein Buch.","intro_verb","0","j","NA","NA","NA","space","space","space","space","j","f","NA","2114","NA","NA","NA","4364","148725","17303","6063","2114","2562","NA","2","legacy","1","1024","2","48000","-16","experiment","1","odd","masc","610442","197479","613913","184513","NA","1283","NA","209100","613413","NA","198632","613417","184018","1290","150021","632985","203037","167324","184014","630871","194914","NA","NA","630871","194914","209100","NA","NA","NA","613913","202996","184513","630871","194914","632985","197476","1283","pandora_session1","5","21793","7","experimental","yes","1920","390","12","18","16","15","6","17","22"
"75","75","3102.75","3102.75","#000000","no","xpyriment","legacy","legacy","0","f","filler","uniform","1","undefined","undefined","j","1","1","NA","21","1","21","1","NA","0","0","0","21","NA","0","21","1","0","0","23","0","0","1","21","1","21","1","21","1","0","NA","21","0","21","1","1","21","1","21","1","0","Wed Jul 13 14:07:34 2022","1000","1000","The main experiment item","yes","War es der Fußballstar, der regelmäßig dopte?","Der Trainer hatte gewusst, dass der Fußballstar, der fünf Tore geschossen hatte, regelmäßig dopte, um seine Leistung zu steigern.","opensesame_pandora_session1.osexp","/home/vlab/Desktop/Pandora_Session1","no","Times New Roman","no","45","no","#ffffff","no","yes","1020","yes","395","124","legacy","21","1","/home/vlab/Desktop/Pandora_Session1/logs/subject-1.csv","NA","xpyriment","filler_question","Lentiform Loewenfeld","3.3.12b1","War es das Kind, das ein Buch las?","Das Kind mit der blauen Hose spielte im Sandkasten und die Mutter las ein Buch.","filler_question","0","j","NA","NA","NA","space","space","space","space","j","f","NA","3029","NA","NA","NA","4364","148725","17303","6063","3029","2562","NA","2","legacy","1","1024","2","48000","-16","experiment","1","odd","filler","632988","197479","636215","184513","NA","1283","NA","209100","635716","NA","198632","635720","184018","1290","150021","652769","203037","167324","184014","649740","194914","NA","NA","649740","194914","209100","NA","NA","NA","636215","202996","184513","649740","194914","652769","197476","1283","pandora_session1","6","24822","8","filler","yes","1920","370","filler","filler","filler","filler","filler","filler","19"
"77.77777777777777","77.77777777777777","3130.1111111111113","3130.1111111111113","#000000","no","xpyriment","legacy","legacy","0","b","LoSyn/HiSem","uniform","1","undefined","undefined","f","1","1","NA","22","1","22","1","NA","0","0","0","22","NA","0","22","1","0","0","24","0","0","1","22","1","22","1","22","1","0","NA","22","0","22","1","1","22","1","22","1","0","Wed Jul 13 14:07:34 2022","1000","1000","The main experiment item","yes","War die Steuerberaterin unzuverlässig?","Die Sekretärin erklärte, dass die Steuerberaterin, die vor der unzuverlässigen Klientin gewarnt hatte, immer noch telefonierte, um eine Fristverlängerung zu erwirken.","opensesame_pandora_session1.osexp","/home/vlab/Desktop/Pandora_Session1","no","Times New Roman","no","45","no","#ffffff","no","yes","1020","yes","395","10","legacy","22","1","/home/vlab/Desktop/Pandora_Session1/logs/subject-1.csv","1","xpyriment","target","Lentiform Loewenfeld","3.3.12b1","War es das Kind, das ein Buch las?","Das Kind mit der blauen Hose spielte im Sandkasten und die Mutter las ein Buch.","adj","0","f","NA","NA","NA","space","space","space","space","f","f","NA","3349","NA","NA","NA","4364","148725","17303","6063","3349","2562","NA","2","legacy","1","1024","2","48000","-16","experiment","1","odd","fem","652772","197479","656161","184513","NA","1283","NA","209100","655662","NA","198632","655666","184018","1290","150021","676073","203037","167324","184014","672724","194914","NA","NA","672724","194914","209100","NA","NA","NA","656161","202996","184513","672724","194914","676073","197476","1283","pandora_session1","7","28171","9","experimental","yes","1920","370","11","17","15","14","6","16","21"
"77.77777777777777","77.77777777777777","3130.1111111111113","3130.1111111111113","#000000","no","xpyriment","legacy","legacy","0","f","filler","uniform","1","undefined","undefined","NA","1","1","NA","23","1","23","1","NA","0","0","0","23","NA","0","23","1","0","0","25","0","0","1","23","1","23","1","23","1","0","NA","23","0","23","1","1","23","1","23","1","0","Wed Jul 13 14:07:34 2022","1000","1000","The main experiment item","yes","NA","Der Enkel wusste, dass die Oma, die die hübsche Tasche gesehen hatte, eisern sparte, weil sie ihm Wünsche erfüllen wollte.","opensesame_pandora_session1.osexp","/home/vlab/Desktop/Pandora_Session1","no","Times New Roman","no","45","no","#ffffff","no","yes","1020","no","395","148","legacy","23","1","/home/vlab/Desktop/Pandora_Session1/logs/subject-1.csv","NA","xpyriment","filler_question","Lentiform Loewenfeld","3.3.12b1","War es das Kind, das ein Buch las?","Das Kind mit der blauen Hose spielte im Sandkasten und die Mutter las ein Buch.","filler_question","0","f","NA","NA","NA","space","space","space","space","f","f","NA","3349","NA","NA","NA","4364","148725","17303","6063","3349","2562","NA","2","legacy","1","1024","2","48000","-16","experiment","1","odd","filler","676076","197479","679378","184513","NA","1283","NA","209100","678879","NA","198632","678883","184018","1290","150021","693316","203037","167324","184014","672724","194914","NA","NA","672724","194914","209100","NA","NA","NA","679378","202996","184513","672724","194914","676073","197476","1283","pandora_session1","7","28171","9","filler","yes","1920","330","filler","filler","filler","filler","filler","filler","20"
"77.77777777777777","77.77777777777777","3130.1111111111113","3130.1111111111113","#000000","no","xpyriment","legacy","legacy","0","d","HiSyn/HiSem","uniform","1","undefined","undefined","NA","1","1","NA","24","1","24","1","NA","0","0","0","24","NA","0","24","1","0","0","26","0","0","1","24","1","24","1","24","1","0","NA","24","0","24","1","1","24","1","24","1","0","Wed Jul 13 14:07:34 2022","1000","1000","The main experiment item","yes","NA","Der Pastor dachte, dass die Musikerin, die genörgelt hatte, dass der Messdiener verstimmt war, etwas empfindlich reagierte, weil das Konzert wichtig war.","opensesame_pandora_session1.osexp","/home/vlab/Desktop/Pandora_Session1","no","Times New Roman","no","45","no","#ffffff","no","yes","1020","no","395","40","legacy","24","1","/home/vlab/Desktop/Pandora_Session1/logs/subject-1.csv","1","xpyriment","NA","Lentiform Loewenfeld","3.3.12b1","War es das Kind, das ein Buch las?","Das Kind mit der blauen Hose spielte im Sandkasten und die Mutter las ein Buch.","NA","0","f","NA","NA","NA","space","space","space","space","f","f","NA","3349","NA","NA","NA","4364","148725","17303","6063","3349","2562","NA","2","legacy","1","1024","2","48000","-16","experiment","1","odd","fem","693319","197479","696787","184513","NA","1283","NA","209100","696287","NA","198632","696291","184018","1290","150021","713520","203037","167324","184014","672724","194914","NA","NA","672724","194914","209100","NA","NA","NA","696787","202996","184513","672724","194914","676073","197476","1283","pandora_session1","7","28171","9","experimental","yes","1920","270","12","18","16","15","6","17","22"
"100","100","2918","2918","#000000","no","xpyriment","legacy","legacy","0","c","HiSyn/LoSem","uniform","1","undefined","undefined","j","1","1","NA","25","1","25","1","NA","0","0","0","25","0","0","25","1","0","0","27","0","0","1","25","1","25","1","25","1","0","NA","25","0","25","1","1","25","1","25","1","0","Wed Jul 13 14:07:34 2022","1000","1000","The main experiment item","yes","War es die Flugbegleiterin, die dennoch lächelte?","Der Passagier ahnte, dass die Flugbegleiterin, die geschimpft hatte, dass das Handgepäck lästig war, dennoch freundlich lächelte, weil es von ihr erwartet wurde.","opensesame_pandora_session1.osexp","/home/vlab/Desktop/Pandora_Session1","no","Times New Roman","no","45","no","#ffffff","no","yes","1020","yes","395","3","legacy","25","1","/home/vlab/Desktop/Pandora_Session1/logs/subject-1.csv","1","xpyriment","target","Lentiform Loewenfeld","3.3.12b1","War es das Kind, das ein Buch las?","Das Kind mit der blauen Hose spielte im Sandkasten und die Mutter las ein Buch.","main_verb","0","j","NA","NA","1","space","space","space","space","j","f","NA","2918","NA","NA","275475","4364","148725","17303","6063","2918","2562","NA","2","legacy","1","1024","2","48000","-16","experiment","1","odd","fem","713524","197479","992711","184513","NA","1283","NA","209100","992212","714681","198632","992216","184018","1290","150021","1013223","203037","167324","184014","1010304","194914","NA","NA","1010304","194914","209100","NA","714524","NA","992711","202996","184513","1010304","194914","1013223","197476","1283","pandora_session1","1","2918","1","experimental","yes","1920","310","12","18","16","15","6","17","23"
"100","100","2918","2918","#000000","no","xpyriment","legacy","legacy","0","f","filler","uniform","1","undefined","undefined","NA","1","1","NA","26","1","26","1","NA","0","0","0","26","0","0","26","1","0","0","28","0","0","1","26","1","26","1","26","1","0","NA","26","0","26","1","1","26","1","26","1","0","Wed Jul 13 14:07:34 2022","1000","1000","The main experiment item","yes","NA","Die Assistentin hatte beobachtet, dass die Fotografin, die die erfolgreiche Ausstellung geplant hatte, penibel vorging, weil sie eine Perfektionistin war.","opensesame_pandora_session1.osexp","/home/vlab/Desktop/Pandora_Session1","no","Times New Roman","no","45","no","#ffffff","no","yes","1020","no","395","139","legacy","26","1","/home/vlab/Desktop/Pandora_Session1/logs/subject-1.csv","NA","xpyriment","filler_question","Lentiform Loewenfeld","3.3.12b1","War es das Kind, das ein Buch las?","Das Kind mit der blauen Hose spielte im Sandkasten und die Mutter las ein Buch.","filler_question","0","j","NA","NA","1","space","space","space","space","j","f","NA","2918","NA","NA","275475","4364","148725","17303","6063","2918","2562","NA","2","legacy","1","1024","2","48000","-16","experiment","1","odd","filler","1013225","197479","1016528","184513","NA","1283","NA","209100","1016029","714681","198632","1016033","184018","1290","150021","1031105","203037","167324","184014","1010304","194914","NA","NA","1010304","194914","209100","NA","714524","NA","1016528","202996","184513","1010304","194914","1013223","197476","1283","pandora_session1","1","2918","1","filler","yes","1920","270","filler","filler","filler","filler","filler","filler","20"
"100","100","2918","2918","#000000","no","xpyriment","legacy","legacy","0","f","filler","uniform","1","undefined","undefined","NA","1","1","NA","27","1","27","1","NA","0","0","0","27","0","0","27","1","0","0","29","0","0","1","27","1","27","1","27","1","0","NA","27","0","27","1","1","27","1","27","1","0","Wed Jul 13 14:07:34 2022","1000","1000","The main experiment item","yes","NA","Er befürchtete, dass der vorlaute Teenager, der sich nach der Standpauke klammheimlich verzogen hatte, sogar den Skatepark meiden würde.","opensesame_pandora_session1.osexp","/home/vlab/Desktop/Pandora_Session1","no","Times New Roman","no","45","no","#ffffff","no","yes","1020","no","395","145","legacy","27","1","/home/vlab/Desktop/Pandora_Session1/logs/subject-1.csv","NA","xpyriment","filler_question","Lentiform Loewenfeld","3.3.12b1","War es das Kind, das ein Buch las?","Das Kind mit der blauen Hose spielte im Sandkasten und die Mutter las ein Buch.","filler_question","0","j","NA","NA","1","space","space","space","space","j","f","NA","2918","NA","NA","275475","4364","148725","17303","6063","2918","2562","NA","2","legacy","1","1024","2","48000","-16","experiment","1","odd","filler","1031108","197479","1034336","184513","NA","1283","NA","209100","1033838","714681","198632","1033841","184018","1290","150021","1047984","203037","167324","184014","1010304","194914","NA","NA","1010304","194914","209100","NA","714524","NA","1034336","202996","184513","1010304","194914","1013223","197476","1283","pandora_session1","1","2918","1","filler","yes","1920","310","filler","filler","filler","filler","filler","filler","19"
"100","100","2918","2918","#000000","no","xpyriment","legacy","legacy","0","b","LoSyn/HiSem","uniform","1","undefined","undefined","NA","1","1","NA","28","1","28","1","NA","0","0","0","28","0","0","28","1","0","0","30","0","0","1","28","1","28","1","28","1","0","NA","28","0","28","1","1","28","1","28","1","0","Wed Jul 13 14:07:34 2022","1000","1000","The main experiment item","yes","NA","Der Referent lobte, dass der Menschenrechtler, der über den erfolgreichen Anwalt berichtet hatte, weiterhin aufopferungsvoll kämpfte, um das Leid zu mindern.","opensesame_pandora_session1.osexp","/home/vlab/Desktop/Pandora_Session1","no","Times New Roman","no","45","no","#ffffff","no","yes","1020","no","395","38","legacy","28","1","/home/vlab/Desktop/Pandora_Session1/logs/subject-1.csv","1","xpyriment","NA","Lentiform Loewenfeld","3.3.12b1","War es das Kind, das ein Buch las?","Das Kind mit der blauen Hose spielte im Sandkasten und die Mutter las ein Buch.","NA","0","j","NA","NA","1","space","space","space","space","j","f","NA","2918","NA","NA","275475","4364","148725","17303","6063","2918","2562","NA","2","legacy","1","1024","2","48000","-16","experiment","1","odd","masc","1047987","197479","1051377","184513","NA","1283","NA","209100","1050879","714681","198632","1050882","184018","1290","150021","1067601","203037","167324","184014","1010304","194914","NA","NA","1010304","194914","209100","NA","714524","NA","1051377","202996","184513","1010304","194914","1013223","197476","1283","pandora_session1","1","2918","1","experimental","yes","1920","350","11","17","15","14","6","16","21"
"100","100","2918","2918","#000000","no","xpyriment","legacy","legacy","0","f","filler","uniform","1","undefined","undefined","NA","1","1","NA","29","1","29","1","NA","0","0","0","29","0","0","29","1","0","0","31","0","0","1","29","1","29","1","29","1","0","NA","29","0","29","1","1","29","1","29","1","0","Wed Jul 13 14:07:34 2022","1000","1000","The main experiment item","yes","NA","Der Rhetoriker zeigte dem Politiker, der wegen seiner hohen Stimme nicht ernst genommen wurde, Übungen, um seine Stimme zu trainieren.","opensesame_pandora_session1.osexp","/home/vlab/Desktop/Pandora_Session1","no","Times New Roman","no","45","no","#ffffff","no","yes","1020","no","395","133","legacy","29","1","/home/vlab/Desktop/Pandora_Session1/logs/subject-1.csv","NA","xpyriment","filler_question","Lentiform Loewenfeld","3.3.12b1","War es das Kind, das ein Buch las?","Das Kind mit der blauen Hose spielte im Sandkasten und die Mutter las ein Buch.","filler_question","0","j","NA","NA","1","space","space","space","space","j","f","NA","2918","NA","NA","275475","4364","148725","17303","6063","2918","2562","NA","2","legacy","1","1024","2","48000","-16","experiment","1","odd","filler","1067604","197479","1070909","184513","NA","1283","NA","209100","1070410","714681","198632","1070414","184018","1290","150021","1085083","203037","167324","184014","1010304","194914","NA","NA","1010304","194914","209100","NA","714524","NA","1070909","202996","184513","1010304","194914","1013223","197476","1283","pandora_session1","1","2918","1","filler","yes","1920","410","filler","filler","filler","filler","filler","filler","20"
"100","100","3674.5","3674.5","#000000","no","xpyriment","legacy","legacy","0","f","filler","uniform","1","undefined","undefined","j","1","1","NA","30","1","30","1","NA","0","0","0","30","0","0","30","1","0","0","32","0","0","1","30","1","30","1","30","1","0","NA","30","0","30","1","1","30","1","30","1","0","Wed Jul 13 14:07:34 2022","1000","1000","The main experiment item","yes","Malte die Künstlerin exzentrisch?","Der Galerist, der neue Talente suchte, hatte darüber gelästert, dass die Künstlerin so exzentrisch malte, weil sie Aufsehen erregen wollte.","opensesame_pandora_session1.osexp","/home/vlab/Desktop/Pandora_Session1","no","Times New Roman","no","45","no","#ffffff","no","yes","1020","yes","395","125","legacy","30","1","/home/vlab/Desktop/Pandora_Session1/logs/subject-1.csv","NA","xpyriment","filler_question","Lentiform Loewenfeld","3.3.12b1","War es das Kind, das ein Buch las?","Das Kind mit der blauen Hose spielte im Sandkasten und die Mutter las ein Buch.","filler_question","0","j","NA","NA","1","space","space","space","space","j","f","NA","4431","NA","NA","275475","4364","148725","17303","6063","4431","2562","NA","2","legacy","1","1024","2","48000","-16","experiment","1","odd","filler","1085086","197479","1088388","184513","NA","1283","NA","209100","1087888","714681","198632","1087893","184018","1290","150021","1107102","203037","167324","184014","1102671","194914","NA","NA","1102671","194914","209100","NA","714524","NA","1088388","202996","184513","1102671","194914","1107102","197476","1283","pandora_session1","2","7349","2","filler","yes","1920","330","filler","filler","filler","filler","filler","filler","20"
"100","100","3674.5","3674.5","#000000","no","xpyriment","legacy","legacy","0","a","LoSyn/LoSem","uniform","1","undefined","undefined","NA","1","1","NA","31","1","31","1","NA","0","0","0","31","0","0","31","1","0","0","33","0","0","1","31","1","31","1","31","1","0","NA","31","0","31","1","1","31","1","31","1","0","Wed Jul 13 14:07:34 2022","1000","1000","The main experiment item","yes","NA","Die Küstenwache dokumentierte, dass die Taucherin, die von dem alten Schiffswrack erzählt hatte, früh morgens aufbrach, obwohl ein Gewitter aufzog.","opensesame_pandora_session1.osexp","/home/vlab/Desktop/Pandora_Session1","no","Times New Roman","no","45","no","#ffffff","no","yes","1020","no","395","25","legacy","31","1","/home/vlab/Desktop/Pandora_Session1/logs/subject-1.csv","1","xpyriment","NA","Lentiform Loewenfeld","3.3.12b1","War es das Kind, das ein Buch las?","Das Kind mit der blauen Hose spielte im Sandkasten und die Mutter las ein Buch.","NA","0","j","NA","NA","1","space","space","space","space","j","f","NA","4431","NA","NA","275475","4364","148725","17303","6063","4431","2562","NA","2","legacy","1","1024","2","48000","-16","experiment","1","odd","fem","1107105","197479","1110423","184513","NA","1283","NA","209100","1109925","714681","198632","1109928","184018","1290","150021","1125991","203037","167324","184014","1102671","194914","NA","NA","1102671","194914","209100","NA","714524","NA","1110423","202996","184513","1102671","194914","1107102","197476","1283","pandora_session1","2","7349","2","experimental","yes","1920","330","11","17","15","14","6","16","20"
"100","100","3674.5","3674.5","#000000","no","xpyriment","legacy","legacy","0","c","HiSyn/LoSem","uniform","1","undefined","undefined","NA","1","1","NA","32","1","32","1","NA","0","0","0","32","0","0","32","1","0","0","34","0","0","1","32","1","32","1","32","1","0","NA","32","0","32","1","1","32","1","32","1","0","Wed Jul 13 14:07:34 2022","1000","1000","The main experiment item","yes","NA","Der Onkel befürwortete, dass die Nichte, die erwartet hatte, dass die Feier ausgelassen war, einfach allein tanzte, weil ihr Freund nicht wollte.","opensesame_pandora_session1.osexp","/home/vlab/Desktop/Pandora_Session1","no","Times New Roman","no","45","no","#ffffff","no","yes","1020","no","395","43","legacy","32","1","/home/vlab/Desktop/Pandora_Session1/logs/subject-1.csv","1","xpyriment","NA","Lentiform Loewenfeld","3.3.12b1","War es das Kind, das ein Buch las?","Das Kind mit der blauen Hose spielte im Sandkasten und die Mutter las ein Buch.","NA","0","j","NA","NA","1","space","space","space","space","j","f","NA","4431","NA","NA","275475","4364","148725","17303","6063","4431","2562","NA","2","legacy","1","1024","2","48000","-16","experiment","1","odd","fem","1125994","197479","1129461","184513","NA","1283","NA","209100","1128963","714681","198632","1128966","184018","1290","150021","1146152","203037","167324","184014","1102671","194914","NA","NA","1102671","194914","209100","NA","714524","NA","1129461","202996","184513","1102671","194914","1107102","197476","1283","pandora_session1","2","7349","2","experimental","yes","1920","330","12","18","16","15","6","17","22"
"100","100","3674.5","3674.5","#000000","no","xpyriment","legacy","legacy","0","b","LoSyn/HiSem","uniform","1","undefined","undefined","NA","1","1","NA","33","1","33","1","NA","0","0","0","33","0","0","33","1","0","0","35","0","0","1","33","1","33","1","33","1","0","NA","33","0","33","1","1","33","1","33","1","0","Wed Jul 13 14:07:34 2022","1000","1000","The main experiment item","yes","NA","Die Lektorin bewunderte, dass die Autorin, die über den unseriösen Verleger ausgesagt hatte, sehr gewissenhaft weitermachte, um Missstände offenzulegen.","opensesame_pandora_session1.osexp","/home/vlab/Desktop/Pandora_Session1","no","Times New Roman","no","45","no","#ffffff","no","yes","1020","no","395","42","legacy","33","1","/home/vlab/Desktop/Pandora_Session1/logs/subject-1.csv","1","xpyriment","NA","Lentiform Loewenfeld","3.3.12b1","War es das Kind, das ein Buch las?","Das Kind mit der blauen Hose spielte im Sandkasten und die Mutter las ein Buch.","NA","0","j","NA","NA","1","space","space","space","space","j","f","NA","4431","NA","NA","275475","4364","148725","17303","6063","4431","2562","NA","2","legacy","1","1024","2","48000","-16","experiment","1","odd","fem","1146156","197479","1149382","184513","NA","1283","NA","209100","1148884","714681","198632","1148887","184018","1290","150021","1164197","203037","167324","184014","1102671","194914","NA","NA","1102671","194914","209100","NA","714524","NA","1149382","202996","184513","1102671","194914","1107102","197476","1283","pandora_session1","2","7349","2","experimental","yes","1920","450","11","17","15","14","6","16","19"
"100","100","3674.5","3674.5","#000000","no","xpyriment","legacy","legacy","0","d","HiSyn/HiSem","uniform","1","undefined","undefined","NA","1","1","NA","34","1","34","1","NA","0","0","0","34","0","0","34","1","0","0","36","0","0","1","34","1","34","1","34","1","0","NA","34","0","34","1","1","34","1","34","1","0","Wed Jul 13 14:07:34 2022","1000","1000","The main experiment item","yes","NA","Der Bruder berichtete, dass der Kranke, der gehört hatte, dass der Heilpraktiker alternativ war, zusätzlich regelmäßig meditierte, um die Schmerzen zu lindern.","opensesame_pandora_session1.osexp","/home/vlab/Desktop/Pandora_Session1","no","Times New Roman","no","45","no","#ffffff","no","yes","1020","no","395","52","legacy","34","1","/home/vlab/Desktop/Pandora_Session1/logs/subject-1.csv","1","xpyriment","NA","Lentiform Loewenfeld","3.3.12b1","War es das Kind, das ein Buch las?","Das Kind mit der blauen Hose spielte im Sandkasten und die Mutter las ein Buch.","NA","0","j","NA","NA","1","space","space","space","space","j","f","NA","4431","NA","NA","275475","4364","148725","17303","6063","4431","2562","NA","2","legacy","1","1024","2","48000","-16","experiment","1","odd","masc","1164200","197479","1167661","184513","NA","1283","NA","209100","1167163","714681","198632","1167166","184018","1290","150021","1184533","203037","167324","184014","1102671","194914","NA","NA","1102671","194914","209100","NA","714524","NA","1167661","202996","184513","1102671","194914","1107102","197476","1283","pandora_session1","2","7349","2","experimental","yes","1920","350","12","18","16","15","6","17","22"
"100","100","4009.6666666666665","4009.6666666666665","#000000","no","xpyriment","legacy","legacy","0","f","filler","uniform","1","undefined","undefined","f","1","1","NA","35","1","35","1","NA","0","0","0","35","0","0","35","1","0","0","37","0","0","1","35","1","35","1","35","1","0","NA","35","0","35","1","1","35","1","35","1","0","Wed Jul 13 14:07:34 2022","1000","1000","The main experiment item","yes","War der linke Fuß des Stürmers verletzt?","Der Stürmer, dessen rechter Fuß verletzt war, schoss den Ball mit dem linken Fuß und traf die linke obere Torecke.","opensesame_pandora_session1.osexp","/home/vlab/Desktop/Pandora_Session1","no","Times New Roman","no","45","no","#ffffff","no","yes","1020","yes","395","129","legacy","35","1","/home/vlab/Desktop/Pandora_Session1/logs/subject-1.csv","NA","xpyriment","filler_question","Lentiform Loewenfeld","3.3.12b1","War es das Kind, das ein Buch las?","Das Kind mit der blauen Hose spielte im Sandkasten und die Mutter las ein Buch.","filler_question","0","f","NA","NA","1","space","space","space","space","f","f","NA","4680","NA","NA","275475","4364","148725","17303","6063","4680","2562","NA","2","legacy","1","1024","2","48000","-16","experiment","1","odd","filler","1184537","197479","1187861","184513","NA","1283","NA","209100","1187362","714681","198632","1187365","184018","1290","150021","1206318","203037","167324","184014","1201637","194914","NA","NA","1201637","194914","209100","NA","714524","NA","1187861","202996","184513","1201637","194914","1206318","197476","1283","pandora_session1","3","12029","3","filler","yes","1920","350","filler","filler","filler","filler","filler","filler","20"
"75","75","3873","3873","#000000","no","xpyriment","legacy","legacy","0","c","HiSyn/LoSem","uniform","0","undefined","undefined","j","0","1","NA","36","1","36","1","NA","0","0","0","36","0","0","36","1","0","0","38","0","0","1","36","1","36","1","36","1","0","NA","36","0","36","1","1","36","1","36","1","0","Wed Jul 13 14:07:34 2022","1000","1000","The main experiment item","yes","War die Messung unzuverlässig?","Der Laborleiter wusste, dass der Wissenschaftler, der gejammert hatte, dass die Messung unzuverlässig war, alles gewissenhaft dokumentierte, um den Überblick zu behalten.","opensesame_pandora_session1.osexp","/home/vlab/Desktop/Pandora_Session1","no","Times New Roman","no","45","no","#ffffff","no","yes","1020","yes","395","7","legacy","36","1","/home/vlab/Desktop/Pandora_Session1/logs/subject-1.csv","1","xpyriment","distractor","Lentiform Loewenfeld","3.3.12b1","War es das Kind, das ein Buch las?","Das Kind mit der blauen Hose spielte im Sandkasten und die Mutter las ein Buch.","adj","0","f","NA","NA","1","space","space","space","space","f","f","NA","3463","NA","NA","275475","4364","148725","17303","6063","3463","2562","NA","2","legacy","1","1024","2","48000","-16","experiment","1","odd","masc","1206320","197479","1209786","184513","NA","1283","NA","209100","1209287","714681","198632","1209291","184018","1290","150021","1230189","203037","167324","184014","1226726","194914","NA","NA","1226726","194914","209100","NA","714524","NA","1209786","202996","184513","1226726","194914","1230189","197476","1283","pandora_session1","3","15492","4","experimental","yes","1920","370","12","18","16","15","6","17","22"
"75","75","3873","3873","#000000","no","xpyriment","legacy","legacy","0","c","HiSyn/LoSem","uniform","0","undefined","undefined","NA","0","1","NA","37","1","37","1","NA","0","0","0","37","0","0","37","1","0","0","39","0","0","1","37","1","37","1","37","1","0","NA","37","0","37","1","1","37","1","37","1","0","Wed Jul 13 14:07:34 2022","1000","1000","The main experiment item","yes","NA","Der Schneider erzählte, dass der Designer, der verlangt hatte, dass das Material exklusiv war, oftmals gedankenlos einkaufte, ohne Preise zu beachten.","opensesame_pandora_session1.osexp","/home/vlab/Desktop/Pandora_Session1","no","Times New Roman","no","45","no","#ffffff","no","yes","1020","no","395","55","legacy","37","1","/home/vlab/Desktop/Pandora_Session1/logs/subject-1.csv","1","xpyriment","NA","Lentiform Loewenfeld","3.3.12b1","War es das Kind, das ein Buch las?","Das Kind mit der blauen Hose spielte im Sandkasten und die Mutter las ein Buch.","NA","0","f","NA","NA","1","space","space","space","space","f","f","NA","3463","NA","NA","275475","4364","148725","17303","6063","3463","2562","NA","2","legacy","1","1024","2","48000","-16","experiment","1","odd","masc","1230192","197479","1233573","184513","NA","1283","NA","209100","1233074","714681","198632","1233078","184018","1290","150021","1249632","203037","167324","184014","1226726","194914","NA","NA","1226726","194914","209100","NA","714524","NA","1233573","202996","184513","1226726","194914","1230189","197476","1283","pandora_session1","3","15492","4","experimental","yes","1920","370","12","18","16","15","6","17","21"
"75","75","3873","3873","#000000","no","xpyriment","legacy","legacy","0","f","filler","uniform","0","undefined","undefined","NA","0","1","NA","38","1","38","1","NA","0","0","0","38","0","0","38","1","0","0","40","0","0","1","38","1","38","1","38","1","0","NA","38","0","38","1","1","38","1","38","1","0","Wed Jul 13 14:07:34 2022","1000","1000","The main experiment item","yes","NA","Die Schneiderin, die sehr geschickt war, bestickte die Decke mit einem aufwändigen Muster, nachdem sie die Vorlage aufgelegt hatte.","opensesame_pandora_session1.osexp","/home/vlab/Desktop/Pandora_Session1","no","Times New Roman","no","45","no","#ffffff","no","yes","1020","no","395","149","legacy","38","1","/home/vlab/Desktop/Pandora_Session1/logs/subject-1.csv","NA","xpyriment","filler_question","Lentiform Loewenfeld","3.3.12b1","War es das Kind, das ein Buch las?","Das Kind mit der blauen Hose spielte im Sandkasten und die Mutter las ein Buch.","filler_question","0","f","NA","NA","1","space","space","space","space","f","f","NA","3463","NA","NA","275475","4364","148725","17303","6063","3463","2562","NA","2","legacy","1","1024","2","48000","-16","experiment","1","odd","filler","1249634","197479","1252861","184513","NA","1283","NA","209100","1252363","714681","198632","1252366","184018","1290","150021","1266407","203037","167324","184014","1226726","194914","NA","NA","1226726","194914","209100","NA","714524","NA","1252861","202996","184513","1226726","194914","1230189","197476","1283","pandora_session1","3","15492","4","filler","yes","1920","310","filler","filler","filler","filler","filler","filler","19"
"80","80","4044.6","4044.6","#000000","no","xpyriment","legacy","legacy","0","d","HiSyn/HiSem","uniform","1","undefined","undefined","f","1","1","NA","39","1","39","1","NA","0","0","0","39","0","0","39","1","0","0","41","0","0","1","39","1","39","1","39","1","0","NA","39","0","39","1","1","39","1","39","1","0","Wed Jul 13 14:07:34 2022","1000","1000","The main experiment item","yes","War der Bäcker dreist?","Die Aushilfe sagte, dass der Bäcker, der gemeckert hatte, dass der Kunde dreist war, morgens immer hetzte, um alles fertig zu kriegen.","opensesame_pandora_session1.osexp","/home/vlab/Desktop/Pandora_Session1","no","Times New Roman","no","45","no","#ffffff","no","yes","1020","yes","395","8","legacy","39","1","/home/vlab/Desktop/Pandora_Session1/logs/subject-1.csv","1","xpyriment","target","Lentiform Loewenfeld","3.3.12b1","War es das Kind, das ein Buch las?","Das Kind mit der blauen Hose spielte im Sandkasten und die Mutter las ein Buch.","adj","0","f","NA","NA","1","space","space","space","space","f","f","NA","4731","NA","NA","275475","4364","148725","17303","6063","4731","2562","NA","2","legacy","1","1024","2","48000","-16","experiment","1","odd","masc","1266409","197479","1269877","184513","NA","1283","NA","209100","1269377","714681","198632","1269382","184018","1290","150021","1291205","203037","167324","184014","1286474","194914","NA","NA","1286474","194914","209100","NA","714524","NA","1269877","202996","184513","1286474","194914","1291205","197476","1283","pandora_session1","4","20223","5","experimental","yes","1920","350","12","18","16","15","6","17","22"
"66.66666666666667","66.66666666666667","4165.833333333333","4165.833333333333","#000000","no","xpyriment","legacy","legacy","0","f","filler","uniform","0","undefined","undefined","f","0","1","NA","40","1","40","1","NA","0","0","0","40","0","0","40","1","0","0","42","0","0","1","40","1","40","1","40","1","0","NA","40","0","40","1","1","40","1","40","1","0","Wed Jul 13 14:07:34 2022","1000","1000","The main experiment item","yes","War die Gießkanne groß?","Der Gärtner goss den großen Kaktus, der im Wintergarten stand, mit der winzigen Gießkanne, da er nicht viel Wasser brauchte.","opensesame_pandora_session1.osexp","/home/vlab/Desktop/Pandora_Session1","no","Times New Roman","no","45","no","#ffffff","no","yes","1020","yes","395","130","legacy","40","1","/home/vlab/Desktop/Pandora_Session1/logs/subject-1.csv","NA","xpyriment","filler_question","Lentiform Loewenfeld","3.3.12b1","War es das Kind, das ein Buch las?","Das Kind mit der blauen Hose spielte im Sandkasten und die Mutter las ein Buch.","filler_question","0","j","NA","NA","1","space","space","space","space","j","f","NA","4772","NA","NA","275475","4364","148725","17303","6063","4772","2562","NA","2","legacy","1","1024","2","48000","-16","experiment","1","odd","filler","1291207","197479","1294514","184513","NA","1283","NA","209100","1294015","714681","198632","1294019","184018","1290","150021","1313269","203037","167324","184014","1308496","194914","NA","NA","1308496","194914","209100","NA","714524","NA","1294514","202996","184513","1308496","194914","1313269","197476","1283","pandora_session1","4","24995","6","filler","yes","1920","370","filler","filler","filler","filler","filler","filler","20"
"66.66666666666667","66.66666666666667","4165.833333333333","4165.833333333333","#000000","no","xpyriment","legacy","legacy","0","c","HiSyn/LoSem","uniform","0","undefined","undefined","NA","0","1","NA","41","1","41","1","NA","0","0","0","41","0","0","41","1","0","0","43","0","0","1","41","1","41","1","41","1","0","NA","41","0","41","1","1","41","1","41","1","0","Wed Jul 13 14:07:34 2022","1000","1000","The main experiment item","yes","NA","Der Direktor sagte, dass der Junge, der gedacht hatte, dass die Klassenarbeit ungerecht war, auffällig häufig nachfragte, um Unklarheiten zu klären.","opensesame_pandora_session1.osexp","/home/vlab/Desktop/Pandora_Session1","no","Times New Roman","no","45","no","#ffffff","no","yes","1020","no","395","59","legacy","41","1","/home/vlab/Desktop/Pandora_Session1/logs/subject-1.csv","1","xpyriment","NA","Lentiform Loewenfeld","3.3.12b1","War es das Kind, das ein Buch las?","Das Kind mit der blauen Hose spielte im Sandkasten und die Mutter las ein Buch.","NA","0","j","NA","NA","1","space","space","space","space","j","f","NA","4772","NA","NA","275475","4364","148725","17303","6063","4772","2562","NA","2","legacy","1","1024","2","48000","-16","experiment","1","odd","masc","1313272","197479","1316652","184513","NA","1283","NA","209100","1316154","714681","198632","1316157","184018","1290","150021","1332648","203037","167324","184014","1308496","194914","NA","NA","1308496","194914","209100","NA","714524","NA","1316652","202996","184513","1308496","194914","1313269","197476","1283","pandora_session1","4","24995","6","experimental","yes","1920","330","12","18","16","15","6","17","21"
"66.66666666666667","66.66666666666667","4165.833333333333","4165.833333333333","#000000","no","xpyriment","legacy","legacy","0","f","filler","uniform","0","undefined","undefined","NA","0","1","NA","42","1","42","1","NA","0","0","0","42","0","0","42","1","0","0","44","0","0","1","42","1","42","1","42","1","0","NA","42","0","42","1","1","42","1","42","1","0","Wed Jul 13 14:07:34 2022","1000","1000","The main experiment item","yes","NA","Die Pianistin nutzte das Stimmgerät, das sie von ihrem Großvater bekommen hatte, um das Klavier vor dem Konzert zu stimmen.","opensesame_pandora_session1.osexp","/home/vlab/Desktop/Pandora_Session1","no","Times New Roman","no","45","no","#ffffff","no","yes","1020","no","395","151","legacy","42","1","/home/vlab/Desktop/Pandora_Session1/logs/subject-1.csv","NA","xpyriment","filler_question","Lentiform Loewenfeld","3.3.12b1","War es das Kind, das ein Buch las?","Das Kind mit der blauen Hose spielte im Sandkasten und die Mutter las ein Buch.","filler_question","0","j","NA","NA","1","space","space","space","space","j","f","NA","4772","NA","NA","275475","4364","148725","17303","6063","4772","2562","NA","2","legacy","1","1024","2","48000","-16","experiment","1","odd","filler","1332651","197479","1335959","184513","NA","1283","NA","209100","1335460","714681","198632","1335464","184018","1290","150021","1349915","203037","167324","184014","1308496","194914","NA","NA","1308496","194914","209100","NA","714524","NA","1335959","202996","184513","1308496","194914","1313269","197476","1283","pandora_session1","4","24995","6","filler","yes","1920","350","filler","filler","filler","filler","filler","filler","20"
"66.66666666666667","66.66666666666667","4165.833333333333","4165.833333333333","#000000","no","xpyriment","legacy","legacy","0","b","LoSyn/HiSem","uniform","0","undefined","undefined","NA","0","1","NA","43","1","43","1","NA","0","0","0","43","0","0","43","1","0","0","45","0","0","1","43","1","43","1","43","1","0","NA","43","0","43","1","1","43","1","43","1","0","Wed Jul 13 14:07:34 2022","1000","1000","The main experiment item","yes","NA","Die Kita-Leiterin kritisierte, dass die Mutter, die über die lieblose Erzieherin geschimpft hatte, zu spät kam, um ihr Kind abzuholen.","opensesame_pandora_session1.osexp","/home/vlab/Desktop/Pandora_Session1","no","Times New Roman","no","45","no","#ffffff","no","yes","1020","no","395","58","legacy","43","1","/home/vlab/Desktop/Pandora_Session1/logs/subject-1.csv","1","xpyriment","NA","Lentiform Loewenfeld","3.3.12b1","War es das Kind, das ein Buch las?","Das Kind mit der blauen Hose spielte im Sandkasten und die Mutter las ein Buch.","NA","0","j","NA","NA","1","space","space","space","space","j","f","NA","4772","NA","NA","275475","4364","148725","17303","6063","4772","2562","NA","2","legacy","1","1024","2","48000","-16","experiment","1","odd","fem","1349918","197479","1353220","184513","NA","1283","NA","209100","1352722","714681","198632","1352725","184018","1290","150021","1368709","203037","167324","184014","1308496","194914","NA","NA","1308496","194914","209100","NA","714524","NA","1353220","202996","184513","1308496","194914","1313269","197476","1283","pandora_session1","4","24995","6","experimental","yes","1920","390","11","17","15","14","6","16","20"
"71.42857142857143","71.42857142857143","3980.5714285714284","3980.5714285714284","#000000","no","xpyriment","legacy","legacy","0","f","filler","uniform","1","undefined","undefined","f","1","1","NA","44","1","44","1","NA","0","0","0","44","0","0","44","1","0","0","46","0","0","1","44","1","44","1","44","1","0","NA","44","0","44","1","1","44","1","44","1","0","Wed Jul 13 14:07:34 2022","1000","1000","The main experiment item","yes","War das Gewehr neu?","Der Jäger, der auf dem Hochsitz saß, beobachtete den Fuchs mit dem Fernglas, nachdem er das alte Gewehr poliert hatte.","opensesame_pandora_session1.osexp","/home/vlab/Desktop/Pandora_Session1","no","Times New Roman","no","45","no","#ffffff","no","yes","1020","yes","395","128","legacy","44","1","/home/vlab/Desktop/Pandora_Session1/logs/subject-1.csv","NA","xpyriment","filler_question","Lentiform Loewenfeld","3.3.12b1","War es das Kind, das ein Buch las?","Das Kind mit der blauen Hose spielte im Sandkasten und die Mutter las ein Buch.","filler_question","0","f","NA","NA","1","space","space","space","space","f","f","NA","2869","NA","NA","275475","4364","148725","17303","6063","2869","2562","NA","2","legacy","1","1024","2","48000","-16","experiment","1","odd","filler","1368712","197479","1372019","184513","NA","1283","NA","209100","1371521","714681","198632","1371524","184018","1290","150021","1388748","203037","167324","184014","1385879","194914","NA","NA","1385879","194914","209100","NA","714524","NA","1372019","202996","184513","1385879","194914","1388748","197476","1283","pandora_session1","5","27864","7","filler","yes","1920","310","filler","filler","filler","filler","filler","filler","20"
"75","75","3833.125","3833.125","#000000","no","xpyriment","legacy","legacy","0","f","filler","uniform","1","undefined","undefined","f","1","1","NA","45","1","45","1","NA","0","0","0","45","0","0","45","1","0","0","47","0","0","1","45","1","45","1","45","1","0","NA","45","0","45","1","1","45","1","45","1","0","Wed Jul 13 14:07:34 2022","1000","1000","The main experiment item","yes","Schwänzte der Jugendliche oft die Schule?","Der Jugendliche war genervt, weil seine Freundin, die nicht studieren wollte, oft die Schule schwänzte, um Computer zu spielen.","opensesame_pandora_session1.osexp","/home/vlab/Desktop/Pandora_Session1","no","Times New Roman","no","45","no","#ffffff","no","yes","1020","yes","395","127","legacy","45","1","/home/vlab/Desktop/Pandora_Session1/logs/subject-1.csv","NA","xpyriment","filler_question","Lentiform Loewenfeld","3.3.12b1","War es das Kind, das ein Buch las?","Das Kind mit der blauen Hose spielte im Sandkasten und die Mutter las ein Buch.","filler_question","0","f","NA","NA","1","space","space","space","space","f","f","NA","2801","NA","NA","275475","4364","148725","17303","6063","2801","2562","NA","2","legacy","1","1024","2","48000","-16","experiment","1","odd","filler","1388751","197479","1391983","184513","NA","1283","NA","209100","1391484","714681","198632","1391488","184018","1290","150021","1408252","203037","167324","184014","1405451","194914","NA","NA","1405451","194914","209100","NA","714524","NA","1391983","202996","184513","1405451","194914","1408252","197476","1283","pandora_session1","6","30665","8","filler","yes","1920","350","filler","filler","filler","filler","filler","filler","19"
"75","75","3833.125","3833.125","#000000","no","xpyriment","legacy","legacy","0","a","LoSyn/LoSem","uniform","1","undefined","undefined","NA","1","1","NA","46","1","46","1","NA","0","0","0","46","0","0","46","1","0","0","48","0","0","1","46","1","46","1","46","1","0","NA","46","0","46","1","1","46","1","46","1","0","Wed Jul 13 14:07:34 2022","1000","1000","The main experiment item","yes","NA","Der Ermittler befürchtete, dass der Verdächtige, der über die skrupellose Tat ausgesagt hatte, noch weiter mordete, um Rache zu nehmen.","opensesame_pandora_session1.osexp","/home/vlab/Desktop/Pandora_Session1","no","Times New Roman","no","45","no","#ffffff","no","yes","1020","no","395","45","legacy","46","1","/home/vlab/Desktop/Pandora_Session1/logs/subject-1.csv","1","xpyriment","NA","Lentiform Loewenfeld","3.3.12b1","War es das Kind, das ein Buch las?","Das Kind mit der blauen Hose spielte im Sandkasten und die Mutter las ein Buch.","NA","0","f","NA","NA","1","space","space","space","space","f","f","NA","2801","NA","NA","275475","4364","148725","17303","6063","2801","2562","NA","2","legacy","1","1024","2","48000","-16","experiment","1","odd","masc","1408255","197479","1411553","184513","NA","1283","NA","209100","1411055","714681","198632","1411058","184018","1290","150021","1426919","203037","167324","184014","1405451","194914","NA","NA","1405451","194914","209100","NA","714524","NA","1411553","202996","184513","1405451","194914","1408252","197476","1283","pandora_session1","6","30665","8","experimental","yes","1920","330","11","17","15","14","6","16","20"
"75","75","3833.125","3833.125","#000000","no","xpyriment","legacy","legacy","0","a","LoSyn/LoSem","uniform","1","undefined","undefined","NA","1","1","NA","47","1","47","1","NA","0","0","0","47","0","0","47","1","0","0","49","0","0","1","47","1","47","1","47","1","0","NA","47","0","47","1","1","47","1","47","1","0","Wed Jul 13 14:07:34 2022","1000","1000","The main experiment item","yes","NA","Der Außenminister verurteilte, dass der Diktator, der von dem unmenschlichen Gefängnis gewusst hatte, weiterhin skrupellos regierte, obwohl es Proteste gab.","opensesame_pandora_session1.osexp","/home/vlab/Desktop/Pandora_Session1","no","Times New Roman","no","45","no","#ffffff","no","yes","1020","no","395","49","legacy","47","1","/home/vlab/Desktop/Pandora_Session1/logs/subject-1.csv","1","xpyriment","NA","Lentiform Loewenfeld","3.3.12b1","War es das Kind, das ein Buch las?","Das Kind mit der blauen Hose spielte im Sandkasten und die Mutter las ein Buch.","NA","0","f","NA","NA","1","space","space","space","space","f","f","NA","2801","NA","NA","275475","4364","148725","17303","6063","2801","2562","NA","2","legacy","1","1024","2","48000","-16","experiment","1","odd","masc","1426922","197479","1430233","184513","NA","1283","NA","209100","1429735","714681","198632","1429738","184018","1290","150021","1445940","203037","167324","184014","1405451","194914","NA","NA","1405451","194914","209100","NA","714524","NA","1430233","202996","184513","1405451","194914","1408252","197476","1283","pandora_session1","6","30665","8","experimental","yes","1920","270","11","17","15","14","6","16","20"
"75","75","3833.125","3833.125","#000000","no","xpyriment","legacy","legacy","0","f","filler","uniform","1","undefined","undefined","NA","1","1","NA","48","1","48","1","NA","0","0","0","48","0","0","48","1","0","0","50","0","0","1","48","1","48","1","48","1","0","NA","48","0","48","1","1","48","1","48","1","0","Wed Jul 13 14:07:34 2022","1000","1000","The main experiment item","yes","NA","Der Gaffer überschritt die Absperrung, um den Unfall, bei dem sich ein Transporter überschlagen hatte, besser sehen zu können.","opensesame_pandora_session1.osexp","/home/vlab/Desktop/Pandora_Session1","no","Times New Roman","no","45","no","#ffffff","no","yes","1020","no","395","155","legacy","48","1","/home/vlab/Desktop/Pandora_Session1/logs/subject-1.csv","NA","xpyriment","filler_question","Lentiform Loewenfeld","3.3.12b1","War es das Kind, das ein Buch las?","Das Kind mit der blauen Hose spielte im Sandkasten und die Mutter las ein Buch.","filler_question","0","f","NA","NA","1","space","space","space","space","f","f","NA","2801","NA","NA","275475","4364","148725","17303","6063","2801","2562","NA","2","legacy","1","1024","2","48000","-16","experiment","1","odd","filler","1445942","197479","1449180","184513","NA","1283","NA","209100","1448681","714681","198632","1448685","184018","1290","150021","1462627","203037","167324","184014","1405451","194914","NA","NA","1405451","194914","209100","NA","714524","NA","1449180","202996","184513","1405451","194914","1408252","197476","1283","pandora_session1","6","30665","8","filler","yes","1920","330","filler","filler","filler","filler","filler","filler","19"
"100","100","4754","4754","#000000","no","xpyriment","legacy","legacy","0","d","HiSyn/HiSem","uniform","1","undefined","undefined","f","1","1","NA","49","1","49","1","NA","0","0","0","49","0","0","49","1","0","0","51","0","0","1","49","1","49","1","49","1","0","NA","49","0","49","1","1","49","1","49","1","0","Wed Jul 13 14:07:34 2022","1000","1000","The main experiment item","yes","War es der Busfahrer, der aggressiv brüllte?","Der Lehrer vermutete, dass der Schüler, der berichtet hatte, dass der Busfahrer unangenehm war, mehrfach aggressiv brüllte, um einen Streit zu provozieren.","opensesame_pandora_session1.osexp","/home/vlab/Desktop/Pandora_Session1","no","Times New Roman","no","45","no","#ffffff","no","yes","1020","yes","395","4","legacy","49","1","/home/vlab/Desktop/Pandora_Session1/logs/subject-1.csv","1","xpyriment","distractor","Lentiform Loewenfeld","3.3.12b1","War es das Kind, das ein Buch las?","Das Kind mit der blauen Hose spielte im Sandkasten und die Mutter las ein Buch.","main_verb","0","f","NA","NA","1","space","space","space","space","f","f","NA","4754","NA","NA","275475","4364","148725","17303","6063","4754","2562","NA","2","legacy","1","1024","2","48000","-16","experiment","1","odd","masc","1462630","197479","1466106","184513","NA","1283","NA","209100","1465606","714681","198632","1465611","184018","1290","150021","1487700","203037","167324","184014","1482945","194914","NA","NA","1482945","194914","209100","NA","714524","NA","1466106","202996","184513","1482945","194914","1487699","197476","1283","pandora_session1","1","4754","1","experimental","yes","1920","430","12","18","16","15","6","17","22"
"100","100","4754","4754","#000000","no","xpyriment","legacy","legacy","0","a","LoSyn/LoSem","uniform","0","undefined","undefined","NA","1","1","NA","50","1","50","1","NA","0","0","0","50","1","0","50","1","0","0","52","0","0","1","50","1","50","1","50","1","0","NA","50","0","50","1","1","50","1","50","1","0","Wed Jul 13 14:07:34 2022","1000","1000","The main experiment item","yes","NA","Der Investor befürchtete, dass der Eigentümer, der von dem guten Angebot erzählt hatte, einfach voreilig verkaufte, bevor Gewinne maximiert wurden.","opensesame_pandora_session1.osexp","/home/vlab/Desktop/Pandora_Session1","no","Times New Roman","no","45","no","#ffffff","no","yes","1020","no","395","53","legacy","50","1","/home/vlab/Desktop/Pandora_Session1/logs/subject-1.csv","1","xpyriment","NA","Lentiform Loewenfeld","3.3.12b1","War es das Kind, das ein Buch las?","Das Kind mit der blauen Hose spielte im Sandkasten und die Mutter las ein Buch.","NA","0","1","NA","NA","1","space","space","space","space","f","f","NA","207238","NA","NA","207238","4364","148725","17303","6063","4754","2562","NA","2","legacy","1","1024","2","48000","-16","experiment","1","odd","masc","1487702","197479","1698418","184513","NA","1283","NA","209100","1697920","1488857","198632","1697923","184018","1290","150021","1713881","203037","167324","184014","1482945","194914","NA","NA","1482945","194914","209100","NA","1488702","NA","1698418","202996","184513","1482945","194914","1487699","197476","1283","pandora_session1","1","4754","1","experimental","yes","1920","330","11","17","15","14","6","16","20"
"100","100","4754","4754","#000000","no","xpyriment","legacy","legacy","0","f","filler","uniform","0","undefined","undefined","NA","1","1","NA","51","1","51","1","NA","0","0","0","51","1","0","51","1","0","0","53","0","0","1","51","1","51","1","51","1","0","NA","51","0","51","1","1","51","1","51","1","0","Wed Jul 13 14:07:34 2022","1000","1000","The main experiment item","yes","NA","Sie akzeptierte, dass der sympathische Vorarbeiter, der sich bezüglich seiner Erkrankung lange bedeckt gehalten hatte, wahrscheinlich den Posten abtreten würde.","opensesame_pandora_session1.osexp","/home/vlab/Desktop/Pandora_Session1","no","Times New Roman","no","45","no","#ffffff","no","yes","1020","no","395","159","legacy","51","1","/home/vlab/Desktop/Pandora_Session1/logs/subject-1.csv","NA","xpyriment","filler_question","Lentiform Loewenfeld","3.3.12b1","War es das Kind, das ein Buch las?","Das Kind mit der blauen Hose spielte im Sandkasten und die Mutter las ein Buch.","filler_question","0","1","NA","NA","1","space","space","space","space","f","f","NA","207238","NA","NA","207238","4364","148725","17303","6063","4754","2562","NA","2","legacy","1","1024","2","48000","-16","experiment","1","odd","filler","1713884","197479","1717184","184513","NA","1283","NA","209100","1716684","1488857","198632","1716689","184018","1290","150021","1731882","203037","167324","184014","1482945","194914","NA","NA","1482945","194914","209100","NA","1488702","NA","1717184","202996","184513","1482945","194914","1487699","197476","1283","pandora_session1","1","4754","1","filler","yes","1920","310","filler","filler","filler","filler","filler","filler","20"
"100","100","3040","3040","#000000","no","xpyriment","legacy","legacy","0","f","filler","uniform","1","undefined","undefined","f","1","1","NA","52","1","52","1","NA","0","0","0","52","1","0","52","1","0","0","54","0","0","1","52","1","52","1","52","1","0","NA","52","0","52","1","1","52","1","52","1","0","Wed Jul 13 14:07:34 2022","1000","1000","The main experiment item","yes","War das Fell der Katze schwarz?","Die Erntehelferin sah, dass der Landwirt die Katze mit dem roten Fell verscheuchte, nachdem sie seine Tochter gekratzt hatte.","opensesame_pandora_session1.osexp","/home/vlab/Desktop/Pandora_Session1","no","Times New Roman","no","45","no","#ffffff","no","yes","1020","yes","395","132","legacy","52","1","/home/vlab/Desktop/Pandora_Session1/logs/subject-1.csv","NA","xpyriment","filler_question","Lentiform Loewenfeld","3.3.12b1","War es das Kind, das ein Buch las?","Das Kind mit der blauen Hose spielte im Sandkasten und die Mutter las ein Buch.","filler_question","0","f","NA","NA","1","space","space","space","space","f","f","NA","3040","NA","NA","207238","4364","148725","17303","6063","3040","2562","NA","2","legacy","1","1024","2","48000","-16","experiment","1","odd","filler","1731885","197479","1735124","184513","NA","1283","NA","209100","1734626","1488857","198632","1734629","184018","1290","150021","1751594","203037","167324","184014","1748553","194914","NA","NA","1748553","194914","209100","NA","1488702","NA","1735124","202996","184513","1748553","194914","1751594","197476","1283","pandora_session1","1","3040","1","filler","yes","1920","310","filler","filler","filler","filler","filler","filler","19"
"100","100","3040","3040","#000000","no","xpyriment","legacy","legacy","0","b","LoSyn/HiSem","uniform","1","undefined","undefined","NA","1","1","NA","53","1","53","1","NA","0","0","0","53","1","0","53","1","0","0","55","0","0","1","53","1","53","1","53","1","0","NA","53","0","53","1","1","53","1","53","1","0","Wed Jul 13 14:07:34 2022","1000","1000","The main experiment item","yes","NA","Der Kardiologe erwartete, dass die Apothekerin, die vor dem komplizierten Patienten gewarnt hatte, gewohnt professionell arbeitete, weil sie einen guten Ruf hatte.","opensesame_pandora_session1.osexp","/home/vlab/Desktop/Pandora_Session1","no","Times New Roman","no","45","no","#ffffff","no","yes","1020","no","395","26","legacy","53","1","/home/vlab/Desktop/Pandora_Session1/logs/subject-1.csv","1","xpyriment","NA","Lentiform Loewenfeld","3.3.12b1","War es das Kind, das ein Buch las?","Das Kind mit der blauen Hose spielte im Sandkasten und die Mutter las ein Buch.","NA","0","f","NA","NA","1","space","space","space","space","f","f","NA","3040","NA","NA","207238","4364","148725","17303","6063","3040","2562","NA","2","legacy","1","1024","2","48000","-16","experiment","1","odd","fem","1751596","197479","1755062","184513","NA","1283","NA","209100","1754563","1488857","198632","1754567","184018","1290","150021","1772006","203037","167324","184014","1748553","194914","NA","NA","1748553","194914","209100","NA","1488702","NA","1755062","202996","184513","1748553","194914","1751594","197476","1283","pandora_session1","1","3040","1","experimental","yes","1920","310","11","17","15","14","6","16","22"
"100","100","3040","3040","#000000","no","xpyriment","legacy","legacy","0","c","HiSyn/LoSem","uniform","1","undefined","undefined","NA","1","1","NA","54","1","54","1","NA","0","0","0","54","1","0","54","1","0","0","56","0","0","1","54","1","54","1","54","1","0","NA","54","0","54","1","1","54","1","54","1","0","Wed Jul 13 14:07:34 2022","1000","1000","The main experiment item","yes","NA","Der Ingenieur erkannte, dass die Architektin, die geschwärmt hatte, dass der Entwurf ausgefallen war, nicht sinnvoll kalkulierte, weil sie eigene Ziele verfolgte.","opensesame_pandora_session1.osexp","/home/vlab/Desktop/Pandora_Session1","no","Times New Roman","no","45","no","#ffffff","no","yes","1020","no","395","39","legacy","54","1","/home/vlab/Desktop/Pandora_Session1/logs/subject-1.csv","1","xpyriment","NA","Lentiform Loewenfeld","3.3.12b1","War es das Kind, das ein Buch las?","Das Kind mit der blauen Hose spielte im Sandkasten und die Mutter las ein Buch.","NA","0","f","NA","NA","1","space","space","space","space","f","f","NA","3040","NA","NA","207238","4364","148725","17303","6063","3040","2562","NA","2","legacy","1","1024","2","48000","-16","experiment","1","odd","fem","1772010","197479","1775498","184513","NA","1283","NA","209100","1775000","1488857","198632","1775003","184018","1290","150021","1792393","203037","167324","184014","1748553","194914","NA","NA","1748553","194914","209100","NA","1488702","NA","1775498","202996","184513","1748553","194914","1751594","197476","1283","pandora_session1","1","3040","1","experimental","yes","1920","390","12","18","16","15","6","17","22"
"100","100","3040","3040","#000000","no","xpyriment","legacy","legacy","0","f","filler","uniform","1","undefined","undefined","NA","1","1","NA","55","1","55","1","NA","0","0","0","55","1","0","55","1","0","0","57","0","0","1","55","1","55","1","55","1","0","NA","55","0","55","1","1","55","1","55","1","0","Wed Jul 13 14:07:34 2022","1000","1000","The main experiment item","yes","NA","Er befürchtete, dass der unzuverlässige Student, der sich neulich für das Seminar angemeldet hatte, bald die Lust verlieren würde.","opensesame_pandora_session1.osexp","/home/vlab/Desktop/Pandora_Session1","no","Times New Roman","no","45","no","#ffffff","no","yes","1020","no","395","144","legacy","55","1","/home/vlab/Desktop/Pandora_Session1/logs/subject-1.csv","NA","xpyriment","filler_question","Lentiform Loewenfeld","3.3.12b1","War es das Kind, das ein Buch las?","Das Kind mit der blauen Hose spielte im Sandkasten und die Mutter las ein Buch.","filler_question","0","f","NA","NA","1","space","space","space","space","f","f","NA","3040","NA","NA","207238","4364","148725","17303","6063","3040","2562","NA","2","legacy","1","1024","2","48000","-16","experiment","1","odd","filler","1792396","197479","1795634","184513","NA","1283","NA","209100","1795136","1488857","198632","1795139","184018","1290","150021","1809159","203037","167324","184014","1748553","194914","NA","NA","1748553","194914","209100","NA","1488702","NA","1795634","202996","184513","1748553","194914","1751594","197476","1283","pandora_session1","1","3040","1","filler","yes","1920","310","filler","filler","filler","filler","filler","filler","19"
"100","100","3040","3040","#000000","no","xpyriment","legacy","legacy","0","b","LoSyn/HiSem","uniform","1","undefined","undefined","NA","1","1","NA","56","1","56","1","NA","0","0","0","56","1","0","56","1","0","0","58","0","0","1","56","1","56","1","56","1","0","NA","56","0","56","1","1","56","1","56","1","0","Wed Jul 13 14:07:34 2022","1000","1000","The main experiment item","yes","NA","Der Auftraggeber würdigte, dass der Statiker, der mit dem optimalen Lieferanten kalkuliert hatte, sehr geschickt plante, um die Fensterfront zu vergrößern.","opensesame_pandora_session1.osexp","/home/vlab/Desktop/Pandora_Session1","no","Times New Roman","no","45","no","#ffffff","no","yes","1020","no","395","22","legacy","56","1","/home/vlab/Desktop/Pandora_Session1/logs/subject-1.csv","1","xpyriment","NA","Lentiform Loewenfeld","3.3.12b1","War es das Kind, das ein Buch las?","Das Kind mit der blauen Hose spielte im Sandkasten und die Mutter las ein Buch.","NA","0","f","NA","NA","1","space","space","space","space","f","f","NA","3040","NA","NA","207238","4364","148725","17303","6063","3040","2562","NA","2","legacy","1","1024","2","48000","-16","experiment","1","odd","masc","1809163","197479","1812549","184513","NA","1283","NA","209100","1812051","1488857","198632","1812054","184018","1290","150021","1828865","203037","167324","184014","1748553","194914","NA","NA","1748553","194914","209100","NA","1488702","NA","1812549","202996","184513","1748553","194914","1751594","197476","1283","pandora_session1","1","3040","1","experimental","yes","1920","410","11","17","15","14","6","16","21"
"100","100","3113.5","3113.5","#000000","no","xpyriment","legacy","legacy","0","b","LoSyn/HiSem","uniform","1","undefined","undefined","f","1","1","NA","57","1","57","1","NA","0","0","0","57","1","0","57","1","0","0","59","0","0","1","57","1","57","1","57","1","0","NA","57","0","57","1","1","57","1","57","1","0","Wed Jul 13 14:07:34 2022","1000","1000","The main experiment item","yes","War es der Gastredner, der sehr sorgfältig argumentierte?","Der Professor bemerkte, dass die Studentin, die gegen den umstrittenen Gastredner argumentiert hatte, sehr sorgfältig argumentierte, um das Gremium zu überzeugen.","opensesame_pandora_session1.osexp","/home/vlab/Desktop/Pandora_Session1","no","Times New Roman","no","45","no","#ffffff","no","yes","1020","yes","395","2","legacy","57","1","/home/vlab/Desktop/Pandora_Session1/logs/subject-1.csv","1","xpyriment","distractor","Lentiform Loewenfeld","3.3.12b1","War es das Kind, das ein Buch las?","Das Kind mit der blauen Hose spielte im Sandkasten und die Mutter las ein Buch.","main_verb","0","f","NA","NA","1","space","space","space","space","f","f","NA","3187","NA","NA","207238","4364","148725","17303","6063","3187","2562","NA","2","legacy","1","1024","2","48000","-16","experiment","1","odd","fem","1828868","197479","1832263","184513","NA","1283","NA","209100","1831764","1488857","198632","1831768","184018","1290","150021","1851713","203037","167324","184014","1848526","194914","NA","NA","1848526","194914","209100","NA","1488702","NA","1832263","202996","184513","1848526","194914","1851713","197476","1283","pandora_session1","2","6227","2","experimental","yes","1920","410","11","17","15","14","6","16","21"
