"acc","accuracy","average_response_time","avg_rt","background","bidi","canvas_backend","clock_backend","color_backend","compensation","cond","cond_name","coordinates","correct","correct_instructions_p1","correct_instructions_p2","correct_response","correct_response_exp_1","correct_response_prac","correct_start_next_block","count_ITI_1","count_ITI_prac","count_RSVP_exp_1","count_RSVP_prac","count_break_1","count_experiment","count_experiment_end","count_experiment_loop_1","count_experiment_trial_1","count_feedback","count_feedback_prac","count_fixation_cross_exp_1","count_fixation_cross_prac","count_instructions_p1","count_instructions_p2","count_logger","count_practice_end","count_practice_loop","count_practice_trial","count_question_exp_1","count_question_prac","count_reset_feedback_exp_1","count_reset_feedback_prac","count_response_exp_1","count_response_prac","count_select","count_start_next_block","count_trigger_break_1","count_trigger_exp_end","count_trigger_fix_1","count_trigger_pracend","count_trigger_pracfix","count_trigger_question_1","count_trigger_question_prac","count_trigger_response_1","count_trigger_response_prac","count_triggers","datetime","delay_ITI_1","delay_ITI_prac","description","disable_garbage_collection","exp_question","exp_sentence","experiment_file","experiment_path","font_bold","font_family","font_italic","font_size","font_underline","foreground","form_clicks","fullscreen","height","is_question","isi","item","keyboard_backend","live_row","live_row_practice_loop","logfile","lst","mouse_backend","np_in_question","opensesame_codename","opensesame_version","practice_question","practice_sentence","question_type","repeat_cycle","response","response_break_1","response_experiment_end","response_feedback","response_feedback_prac","response_instructions_p1","response_instructions_p2","response_practice_end","response_response_exp_1","response_response_prac","response_start_next_block","response_time","response_time_break_1","response_time_experiment_end","response_time_feedback","response_time_feedback_prac","response_time_instructions_p1","response_time_instructions_p2","response_time_practice_end","response_time_response_exp_1","response_time_response_prac","response_time_start_next_block","round_decimals","sampler_backend","session","sound_buf_size","sound_channels","sound_freq","sound_sample_size","start","subject_nr","subject_parity","target_np_gender","time_ITI_1","time_ITI_prac","time_RSVP_exp_1","time_RSVP_prac","time_break_1","time_experiment","time_experiment_end","time_experiment_loop_1","time_experiment_trial_1","time_feedback","time_feedback_prac","time_fixation_cross_exp_1","time_fixation_cross_prac","time_instructions_p1","time_instructions_p2","time_logger","time_practice_end","time_practice_loop","time_practice_trial","time_question_exp_1","time_question_prac","time_reset_feedback_exp_1","time_reset_feedback_prac","time_response_exp_1","time_response_prac","time_select","time_start_next_block","time_trigger_break_1","time_trigger_exp_end","time_trigger_fix_1","time_trigger_pracend","time_trigger_pracfix","time_trigger_question_1","time_trigger_question_prac","time_trigger_response_1","time_trigger_response_prac","time_triggers","title","total_correct","total_response_time","total_responses","type","uniform_coordinates","width","word_dur","word_no_distractor","word_no_post","word_no_precrit","word_no_prepre","word_no_subject","word_no_verb","words_in_sentence"
"0","0","3601","3601","#000000","no","xpyriment","legacy","legacy","0","NA","NA","uniform","0","undefined","undefined","j","NA","0","NA","NA","0","NA","0","NA","0","0","0","NA","NA","NA","NA","0","0","0","0","0","0","0","NA","0","NA","0","NA","0","0","NA","NA","0","NA","0","0","NA","0","NA","0","0","Thu Jul 14 12:44:26 2022","NA","1000","The main experiment item","yes","NA","NA","opensesame_pandora_session1.osexp","/home/vlab/Desktop/Pandora_Session1","no","Times New Roman","no","45","no","#ffffff","no","yes","1020","yes","395","NA","legacy","0","0","/home/vlab/Desktop/Pandora_Session1/logs/subject-2.csv","NA","xpyriment","NA","Lentiform Loewenfeld","3.3.12b1","War es der Pendler, der hetzte?","Der Radfahrer sah, wie der Pendler, der spät dran war, zur Bahn hetzte.","NA","0","f","NA","NA","NA","NA","space","space","NA","NA","f","NA","3601","NA","NA","NA","NA","560849","8769","NA","NA","3601","NA","2","legacy","NA","1024","2","48000","-16","experiment","2","even","NA","NA","NA","NA","572731","NA","1283","NA","NA","NA","NA","NA","NA","572236","1290","562145","585867","NA","570915","572233","NA","582265","NA","NA","NA","582265","NA","NA","NA","NA","NA","NA","572731","NA","582265","NA","585867","1283","pandora_session1","0","3601","1","NA","yes","1920","330","NA","NA","NA","NA","NA","NA","NA"
"50","50","2400.5","2400.5","#000000","no","xpyriment","legacy","legacy","0","NA","NA","uniform","1","undefined","undefined","f","NA","1","NA","NA","1","NA","1","NA","0","0","0","NA","NA","NA","NA","1","0","0","1","0","0","1","NA","1","NA","1","NA","1","0","NA","NA","0","NA","1","1","NA","1","NA","1","0","Thu Jul 14 12:44:26 2022","NA","1000","The main experiment item","yes","NA","NA","opensesame_pandora_session1.osexp","/home/vlab/Desktop/Pandora_Session1","no","Times New Roman","no","45","no","#ffffff","no","yes","1020","yes","395","NA","legacy","1","1","/home/vlab/Desktop/Pandora_Session1/logs/subject-2.csv","NA","xpyriment","NA","Lentiform Loewenfeld","3.3.12b1","War es das Kind, das ein Buch las?","Das Kind mit der blauen Hose spielte im Sandkasten und die Mutter las ein Buch.","NA","0","f","NA","NA","NA","NA","space","space","NA","NA","f","NA","1200","NA","NA","NA","NA","560849","8769","NA","NA","1200","NA","2","legacy","NA","1024","2","48000","-16","experiment","2","even","NA","NA","585880","NA","588885","NA","1283","NA","NA","NA","NA","NA","NA","588390","1290","562145","600490","NA","570915","588386","NA","599289","NA","NA","NA","599289","NA","NA","NA","NA","NA","586880","588885","NA","599289","NA","600490","1283","pandora_session1","1","4801","2","NA","yes","1920","290","NA","NA","NA","NA","NA","NA","NA"
"undefined","undefined","undefined","undefined","#000000","no","xpyriment","legacy","legacy","0","b","LoSyn/HiSem","uniform","undefined","undefined","undefined","NA","NA","1","NA","0","1","0","1","NA","0","0","0","0","NA","0","0","1","0","0","2","0","0","1","0","1","0","1","0","1","0","NA","0","0","0","1","1","0","1","0","1","0","Thu Jul 14 12:44:26 2022","1000","1000","The main experiment item","yes","NA","Der Angehörige hörte, dass die Suchtkranke, die von dem renommierten Therapeuten gewusst hatte, weiter entschlossen durchhielt, um ihre Ehe zu retten.","opensesame_pandora_session1.osexp","/home/vlab/Desktop/Pandora_Session1","no","Times New Roman","no","45","no","#ffffff","no","yes","1020","no","395","57","legacy","0","1","/home/vlab/Desktop/Pandora_Session1/logs/subject-2.csv","2","xpyriment","NA","Lentiform Loewenfeld","3.3.12b1","War es das Kind, das ein Buch las?","Das Kind mit der blauen Hose spielte im Sandkasten und die Mutter las ein Buch.","NA","0","space","NA","NA","NA","space","space","space","space","NA","f","NA","4459","NA","NA","NA","5166","560849","8769","4459","NA","1200","NA","2","legacy","1","1024","2","48000","-16","experiment","2","even","fem","NA","600492","613935","588885","NA","1283","NA","611322","613420","NA","601652","613440","588390","1290","562145","630059","606862","570915","588386","NA","599289","NA","NA","NA","599289","611322","NA","NA","NA","613935","606818","588885","NA","599289","NA","600490","1283","pandora_session1","0","0","0","experimental","yes","1920","330","11","17","15","14","6","16","21"
"undefined","undefined","undefined","undefined","#000000","no","xpyriment","legacy","legacy","0","c","HiSyn/LoSem","uniform","undefined","undefined","undefined","NA","NA","1","NA","1","1","1","1","NA","0","0","0","1","NA","0","1","1","0","0","3","0","0","1","1","1","1","1","1","1","0","NA","1","0","1","1","1","1","1","1","1","0","Thu Jul 14 12:44:26 2022","1000","1000","The main experiment item","yes","NA","Der Auftraggeber würdigte, dass der Statiker, der kalkuliert hatte, dass der Untergrund optimal war, sehr geschickt plante, um die Fensterfront zu vergrößern.","opensesame_pandora_session1.osexp","/home/vlab/Desktop/Pandora_Session1","no","Times New Roman","no","45","no","#ffffff","no","yes","1020","no","395","22","legacy","1","1","/home/vlab/Desktop/Pandora_Session1/logs/subject-2.csv","2","xpyriment","NA","Lentiform Loewenfeld","3.3.12b1","War es das Kind, das ein Buch las?","Das Kind mit der blauen Hose spielte im Sandkasten und die Mutter las ein Buch.","NA","0","space","NA","NA","NA","space","space","space","space","NA","f","NA","4459","NA","NA","NA","5166","560849","8769","4459","NA","1200","NA","2","legacy","1","1024","2","48000","-16","experiment","2","even","masc","630062","600492","633560","588885","NA","1283","NA","611322","633060","NA","601652","633065","588390","1290","562145","650576","606862","570915","588386","NA","599289","NA","NA","NA","599289","611322","NA","NA","NA","633560","606818","588885","NA","599289","NA","600490","1283","pandora_session1","0","0","0","experimental","yes","1920","410","12","18","16","15","6","17","22"
"undefined","undefined","undefined","undefined","#000000","no","xpyriment","legacy","legacy","0","f","filler","uniform","undefined","undefined","undefined","NA","NA","1","NA","2","1","2","1","NA","0","0","0","2","NA","0","2","1","0","0","4","0","0","1","2","1","2","1","2","1","0","NA","2","0","2","1","1","2","1","2","1","0","Thu Jul 14 12:44:26 2022","1000","1000","The main experiment item","yes","NA","Der Paketbote übergab die Lieferung mit dem zerbrechlichen Inhalt, nachdem er den Empfänger, dessen Klingel nicht funktionierte, ausfindig gemacht hatte.","opensesame_pandora_session1.osexp","/home/vlab/Desktop/Pandora_Session1","no","Times New Roman","no","45","no","#ffffff","no","yes","1020","no","395","153","legacy","2","1","/home/vlab/Desktop/Pandora_Session1/logs/subject-2.csv","NA","xpyriment","filler_question","Lentiform Loewenfeld","3.3.12b1","War es das Kind, das ein Buch las?","Das Kind mit der blauen Hose spielte im Sandkasten und die Mutter las ein Buch.","filler_question","0","space","NA","NA","NA","space","space","space","space","NA","f","NA","4459","NA","NA","NA","5166","560849","8769","4459","NA","1200","NA","2","legacy","1","1024","2","48000","-16","experiment","2","even","filler","650580","600492","653898","588885","NA","1283","NA","611322","653400","NA","601652","653403","588390","1290","562145","668457","606862","570915","588386","NA","599289","NA","NA","NA","599289","611322","NA","NA","NA","653898","606818","588885","NA","599289","NA","600490","1283","pandora_session1","0","0","0","filler","yes","1920","310","filler","filler","filler","filler","filler","filler","20"
"undefined","undefined","undefined","undefined","#000000","no","xpyriment","legacy","legacy","0","f","filler","uniform","undefined","undefined","undefined","NA","NA","1","NA","3","1","3","1","NA","0","0","0","3","NA","0","3","1","0","0","5","0","0","1","3","1","3","1","3","1","0","NA","3","0","3","1","1","3","1","3","1","0","Thu Jul 14 12:44:26 2022","1000","1000","The main experiment item","yes","NA","Die Pianistin nutzte das Stimmgerät, das sie von ihrem Großvater bekommen hatte, um das Klavier vor dem Konzert zu stimmen.","opensesame_pandora_session1.osexp","/home/vlab/Desktop/Pandora_Session1","no","Times New Roman","no","45","no","#ffffff","no","yes","1020","no","395","151","legacy","3","1","/home/vlab/Desktop/Pandora_Session1/logs/subject-2.csv","NA","xpyriment","filler_question","Lentiform Loewenfeld","3.3.12b1","War es das Kind, das ein Buch las?","Das Kind mit der blauen Hose spielte im Sandkasten und die Mutter las ein Buch.","filler_question","0","space","NA","NA","NA","space","space","space","space","NA","f","NA","4459","NA","NA","NA","5166","560849","8769","4459","NA","1200","NA","2","legacy","1","1024","2","48000","-16","experiment","2","even","filler","668461","600492","671775","588885","NA","1283","NA","611322","671276","NA","601652","671280","588390","1290","562145","685735","606862","570915","588386","NA","599289","NA","NA","NA","599289","611322","NA","NA","NA","671775","606818","588885","NA","599289","NA","600490","1283","pandora_session1","0","0","0","filler","yes","1920","350","filler","filler","filler","filler","filler","filler","20"
"100","100","2230","2230","#000000","no","xpyriment","legacy","legacy","0","c","HiSyn/LoSem","uniform","1","undefined","undefined","j","1","1","NA","4","1","4","1","NA","0","0","0","4","NA","0","4","1","0","0","6","0","0","1","4","1","4","1","4","1","0","NA","4","0","4","1","1","4","1","4","1","0","Thu Jul 14 12:44:26 2022","1000","1000","The main experiment item","yes","War die Kreuzfahrt glamourös?","Der Trauzeuge sah, dass der Bräutigam, der geprahlt hatte, dass die Kreuzfahrt glamourös war, leider ungünstig stolperte, wodurch er sich den Knöchel verstauchte.","opensesame_pandora_session1.osexp","/home/vlab/Desktop/Pandora_Session1","no","Times New Roman","no","45","no","#ffffff","no","yes","1020","yes","395","6","legacy","4","1","/home/vlab/Desktop/Pandora_Session1/logs/subject-2.csv","2","xpyriment","distractor","Lentiform Loewenfeld","3.3.12b1","War es das Kind, das ein Buch las?","Das Kind mit der blauen Hose spielte im Sandkasten und die Mutter las ein Buch.","adj","0","j","NA","NA","NA","space","space","space","space","j","f","NA","2230","NA","NA","NA","5166","560849","8769","4459","2230","1200","NA","2","legacy","1","1024","2","48000","-16","experiment","2","even","masc","685738","600492","689284","588885","NA","1283","NA","611322","688785","NA","601652","688789","588390","1290","562145","709009","606862","570915","588386","706779","599289","NA","NA","706779","599289","611322","NA","NA","NA","689284","606818","588885","706779","599289","709009","600490","1283","pandora_session1","1","2230","1","experimental","yes","1920","430","12","18","16","15","6","17","23"
"100","100","2230","2230","#000000","no","xpyriment","legacy","legacy","0","b","LoSyn/HiSem","uniform","1","undefined","undefined","NA","1","1","NA","5","1","5","1","NA","0","0","0","5","NA","0","5","1","0","0","7","0","0","1","5","1","5","1","5","1","0","NA","5","0","5","1","1","5","1","5","1","0","Thu Jul 14 12:44:26 2022","1000","1000","The main experiment item","yes","NA","Der Aufsichtsrat ahnte, dass der Börsenmakler, der von dem raffinierten Informanten gewusst hatte, wiederholt hinterhältig betrog, um Schulden zu begleichen.","opensesame_pandora_session1.osexp","/home/vlab/Desktop/Pandora_Session1","no","Times New Roman","no","45","no","#ffffff","no","yes","1020","no","395","21","legacy","5","1","/home/vlab/Desktop/Pandora_Session1/logs/subject-2.csv","2","xpyriment","NA","Lentiform Loewenfeld","3.3.12b1","War es das Kind, das ein Buch las?","Das Kind mit der blauen Hose spielte im Sandkasten und die Mutter las ein Buch.","NA","0","j","NA","NA","NA","space","space","space","space","j","f","NA","2230","NA","NA","NA","5166","560849","8769","4459","2230","1200","NA","2","legacy","1","1024","2","48000","-16","experiment","2","even","masc","709011","600492","712323","588885","NA","1283","NA","611322","711815","NA","601652","711827","588390","1290","562145","728013","606862","570915","588386","706779","599289","NA","NA","706779","599289","611322","NA","NA","NA","712323","606818","588885","706779","599289","709009","600490","1283","pandora_session1","1","2230","1","experimental","yes","1920","410","11","17","15","14","6","16","20"
"100","100","2230","2230","#000000","no","xpyriment","legacy","legacy","0","d","HiSyn/HiSem","uniform","1","undefined","undefined","NA","1","1","NA","6","1","6","1","NA","0","0","0","6","NA","0","6","1","0","0","8","0","0","1","6","1","6","1","6","1","0","NA","6","0","6","1","1","6","1","6","1","0","Thu Jul 14 12:44:26 2022","1000","1000","The main experiment item","yes","NA","Der Direktor sagte, dass der Junge, der gedacht hatte, dass der Prüfer ungerecht war, auffällig häufig nachfragte, um Unklarheiten zu klären.","opensesame_pandora_session1.osexp","/home/vlab/Desktop/Pandora_Session1","no","Times New Roman","no","45","no","#ffffff","no","yes","1020","no","395","59","legacy","6","1","/home/vlab/Desktop/Pandora_Session1/logs/subject-2.csv","2","xpyriment","NA","Lentiform Loewenfeld","3.3.12b1","War es das Kind, das ein Buch las?","Das Kind mit der blauen Hose spielte im Sandkasten und die Mutter las ein Buch.","NA","0","j","NA","NA","NA","space","space","space","space","j","f","NA","2230","NA","NA","NA","5166","560849","8769","4459","2230","1200","NA","2","legacy","1","1024","2","48000","-16","experiment","2","even","masc","728016","600492","731390","588885","NA","1283","NA","611322","730890","NA","601652","730895","588390","1290","562145","747256","606862","570915","588386","706779","599289","NA","NA","706779","599289","611322","NA","NA","NA","731390","606818","588885","706779","599289","709009","600490","1283","pandora_session1","1","2230","1","experimental","yes","1920","330","12","18","16","15","6","17","21"
"100","100","1764","1764","#000000","no","xpyriment","legacy","legacy","0","f","filler","uniform","1","undefined","undefined","j","1","1","NA","7","1","7","1","NA","0","0","0","7","NA","0","7","1","0","0","9","0","0","1","7","1","7","1","7","1","0","NA","7","0","7","1","1","7","1","7","1","0","Thu Jul 14 12:44:26 2022","1000","1000","The main experiment item","yes","War die Gärtnerin froh?","Die Gärtnerin war froh, dass ihr Auftraggeber doch noch in die aufwändige Neugestaltung einwilligte, weil sie den Auftrag brauchte.","opensesame_pandora_session1.osexp","/home/vlab/Desktop/Pandora_Session1","no","Times New Roman","no","45","no","#ffffff","no","yes","1020","yes","395","123","legacy","7","1","/home/vlab/Desktop/Pandora_Session1/logs/subject-2.csv","NA","xpyriment","filler_question","Lentiform Loewenfeld","3.3.12b1","War es das Kind, das ein Buch las?","Das Kind mit der blauen Hose spielte im Sandkasten und die Mutter las ein Buch.","filler_question","0","j","NA","NA","NA","space","space","space","space","j","f","NA","1298","NA","NA","NA","5166","560849","8769","4459","1298","1200","NA","2","legacy","1","1024","2","48000","-16","experiment","2","even","filler","747261","600492","750480","588885","NA","1283","NA","611322","749982","NA","601652","749985","588390","1290","562145","765329","606862","570915","588386","764030","599289","NA","NA","764030","599289","611322","NA","NA","NA","750480","606818","588885","764030","599289","765328","600490","1283","pandora_session1","2","3528","2","filler","yes","1920","370","filler","filler","filler","filler","filler","filler","19"
"100","100","1764","1764","#000000","no","xpyriment","legacy","legacy","0","f","filler","uniform","1","undefined","undefined","NA","1","1","NA","8","1","8","1","NA","0","0","0","8","NA","0","8","1","0","0","10","0","0","1","8","1","8","1","8","1","0","NA","8","0","8","1","1","8","1","8","1","0","Thu Jul 14 12:44:26 2022","1000","1000","The main experiment item","yes","NA","Der Gaffer überschritt die Absperrung, um den Unfall, bei dem sich ein Transporter überschlagen hatte, besser sehen zu können.","opensesame_pandora_session1.osexp","/home/vlab/Desktop/Pandora_Session1","no","Times New Roman","no","45","no","#ffffff","no","yes","1020","no","395","155","legacy","8","1","/home/vlab/Desktop/Pandora_Session1/logs/subject-2.csv","NA","xpyriment","filler_question","Lentiform Loewenfeld","3.3.12b1","War es das Kind, das ein Buch las?","Das Kind mit der blauen Hose spielte im Sandkasten und die Mutter las ein Buch.","filler_question","0","j","NA","NA","NA","space","space","space","space","j","f","NA","1298","NA","NA","NA","5166","560849","8769","4459","1298","1200","NA","2","legacy","1","1024","2","48000","-16","experiment","2","even","filler","765331","600492","768553","588885","NA","1283","NA","611322","768055","NA","601652","768058","588390","1290","562145","781996","606862","570915","588386","764030","599289","NA","NA","764030","599289","611322","NA","NA","NA","768553","606818","588885","764030","599289","765328","600490","1283","pandora_session1","2","3528","2","filler","yes","1920","330","filler","filler","filler","filler","filler","filler","19"
"100","100","1779.6666666666667","1779.6666666666667","#000000","no","xpyriment","legacy","legacy","0","f","filler","uniform","1","undefined","undefined","j","1","1","NA","9","1","9","1","NA","0","0","0","9","NA","0","9","1","0","0","11","0","0","1","9","1","9","1","9","1","0","NA","9","0","9","1","1","9","1","9","1","0","Thu Jul 14 12:44:26 2022","1000","1000","The main experiment item","yes","Hoffte der Mann, dass die Architektin zusagte?","Der Mann hoffte, dass die junge Architektin, die der Nachbar empfohlen hatte, endlich zusagte, damit er sein Traumhaus bauen konnte.","opensesame_pandora_session1.osexp","/home/vlab/Desktop/Pandora_Session1","no","Times New Roman","no","45","no","#ffffff","no","yes","1020","yes","395","126","legacy","9","1","/home/vlab/Desktop/Pandora_Session1/logs/subject-2.csv","NA","xpyriment","filler_question","Lentiform Loewenfeld","3.3.12b1","War es das Kind, das ein Buch las?","Das Kind mit der blauen Hose spielte im Sandkasten und die Mutter las ein Buch.","filler_question","0","j","NA","NA","NA","space","space","space","space","j","f","NA","1811","NA","NA","NA","5166","560849","8769","4459","1811","1200","NA","2","legacy","1","1024","2","48000","-16","experiment","2","even","filler","781999","600492","785323","588885","NA","1283","NA","611322","784825","NA","601652","784828","588390","1290","562145","801280","606862","570915","588386","799468","599289","NA","NA","799469","599289","611322","NA","NA","NA","785323","606818","588885","799469","599289","801280","600490","1283","pandora_session1","3","5339","3","filler","yes","1920","330","filler","filler","filler","filler","filler","filler","20"
"100","100","1779.6666666666667","1779.6666666666667","#000000","no","xpyriment","legacy","legacy","0","f","filler","uniform","1","undefined","undefined","NA","1","1","NA","10","1","10","1","NA","0","0","0","10","NA","0","10","1","0","0","12","0","0","1","10","1","10","1","10","1","0","NA","10","0","10","1","1","10","1","10","1","0","Thu Jul 14 12:44:26 2022","1000","1000","The main experiment item","yes","NA","Er befürchtete, dass der unzuverlässige Student, der sich neulich für das Seminar angemeldet hatte, bald die Lust verlieren würde.","opensesame_pandora_session1.osexp","/home/vlab/Desktop/Pandora_Session1","no","Times New Roman","no","45","no","#ffffff","no","yes","1020","no","395","144","legacy","10","1","/home/vlab/Desktop/Pandora_Session1/logs/subject-2.csv","NA","xpyriment","filler_question","Lentiform Loewenfeld","3.3.12b1","War es das Kind, das ein Buch las?","Das Kind mit der blauen Hose spielte im Sandkasten und die Mutter las ein Buch.","filler_question","0","j","NA","NA","NA","space","space","space","space","j","f","NA","1811","NA","NA","NA","5166","560849","8769","4459","1811","1200","NA","2","legacy","1","1024","2","48000","-16","experiment","2","even","filler","801283","600492","804502","588885","NA","1283","NA","611322","804003","NA","601652","804007","588390","1290","562145","818025","606862","570915","588386","799468","599289","NA","NA","799469","599289","611322","NA","NA","NA","804502","606818","588885","799469","599289","801280","600490","1283","pandora_session1","3","5339","3","filler","yes","1920","310","filler","filler","filler","filler","filler","filler","19"
"100","100","1987.75","1987.75","#000000","no","xpyriment","legacy","legacy","0","b","LoSyn/HiSem","uniform","1","undefined","undefined","f","1","1","NA","11","1","11","1","NA","0","0","0","11","NA","0","11","1","0","0","13","0","0","1","11","1","11","1","11","1","0","NA","11","0","11","1","1","11","1","11","1","0","Thu Jul 14 12:44:26 2022","1000","1000","The main experiment item","yes","War es der Leiharbeiter, der besonders aufpasste?","Der Architekt erzählte, dass der Maurer, der über den schlechten Leiharbeiter genörgelt hatte, immer besonders aufpasste, um Fehler zu vermeiden.","opensesame_pandora_session1.osexp","/home/vlab/Desktop/Pandora_Session1","no","Times New Roman","no","45","no","#ffffff","no","yes","1020","yes","395","5","legacy","11","1","/home/vlab/Desktop/Pandora_Session1/logs/subject-2.csv","2","xpyriment","distractor","Lentiform Loewenfeld","3.3.12b1","War es das Kind, das ein Buch las?","Das Kind mit der blauen Hose spielte im Sandkasten und die Mutter las ein Buch.","main_verb","0","f","NA","NA","NA","space","space","space","space","f","f","NA","2612","NA","NA","NA","5166","560849","8769","4459","2612","1200","NA","2","legacy","1","1024","2","48000","-16","experiment","2","even","masc","818027","600492","821334","588885","NA","1283","NA","611322","820834","NA","601652","820839","588390","1290","562145","839400","606862","570915","588386","836788","599289","NA","NA","836788","599289","611322","NA","NA","NA","821334","606818","588885","836788","599289","839400","600490","1283","pandora_session1","4","7951","4","experimental","yes","1920","390","11","17","15","14","6","16","20"
"100","100","1987.75","1987.75","#000000","no","xpyriment","legacy","legacy","0","f","filler","uniform","1","undefined","undefined","NA","1","1","NA","12","1","12","1","NA","0","0","0","12","NA","0","12","1","0","0","14","0","0","1","12","1","12","1","12","1","0","NA","12","0","12","1","1","12","1","12","1","0","Thu Jul 14 12:44:26 2022","1000","1000","The main experiment item","yes","NA","Er erzählte, dass die grauhaarige Buchhändlerin, die sich mit der Aushilfe regelmäßig gestritten hatte, inzwischen die Geduld verloren hatte.","opensesame_pandora_session1.osexp","/home/vlab/Desktop/Pandora_Session1","no","Times New Roman","no","45","no","#ffffff","no","yes","1020","no","395","143","legacy","12","1","/home/vlab/Desktop/Pandora_Session1/logs/subject-2.csv","NA","xpyriment","filler_question","Lentiform Loewenfeld","3.3.12b1","War es das Kind, das ein Buch las?","Das Kind mit der blauen Hose spielte im Sandkasten und die Mutter las ein Buch.","filler_question","0","f","NA","NA","NA","space","space","space","space","f","f","NA","2612","NA","NA","NA","5166","560849","8769","4459","2612","1200","NA","2","legacy","1","1024","2","48000","-16","experiment","2","even","filler","839403","600492","842627","588885","NA","1283","NA","611322","842128","NA","601652","842132","588390","1290","562145","856388","606862","570915","588386","836788","599289","NA","NA","836788","599289","611322","NA","NA","NA","842627","606818","588885","836788","599289","839400","600490","1283","pandora_session1","4","7951","4","filler","yes","1920","310","filler","filler","filler","filler","filler","filler","19"
"100","100","1801","1801","#000000","no","xpyriment","legacy","legacy","0","f","filler","uniform","1","undefined","undefined","f","1","1","NA","13","1","13","1","NA","0","0","0","13","NA","0","13","1","0","0","15","0","0","1","13","1","13","1","13","1","0","NA","13","0","13","1","1","13","1","13","1","0","Thu Jul 14 12:44:26 2022","1000","1000","The main experiment item","yes","War das Fell der Katze schwarz?","Die Erntehelferin sah, dass der Landwirt die Katze mit dem roten Fell verscheuchte, nachdem sie seine Tochter gekratzt hatte.","opensesame_pandora_session1.osexp","/home/vlab/Desktop/Pandora_Session1","no","Times New Roman","no","45","no","#ffffff","no","yes","1020","yes","395","132","legacy","13","1","/home/vlab/Desktop/Pandora_Session1/logs/subject-2.csv","NA","xpyriment","filler_question","Lentiform Loewenfeld","3.3.12b1","War es das Kind, das ein Buch las?","Das Kind mit der blauen Hose spielte im Sandkasten und die Mutter las ein Buch.","filler_question","0","f","NA","NA","NA","space","space","space","space","f","f","NA","1054","NA","NA","NA","5166","560849","8769","4459","1054","1200","NA","2","legacy","1","1024","2","48000","-16","experiment","2","even","filler","856391","600492","859626","588885","NA","1283","NA","611322","859126","NA","601652","859131","588390","1290","562145","874112","606862","570915","588386","873057","599289","NA","NA","873057","599289","611322","NA","NA","NA","859626","606818","588885","873057","599289","874112","600490","1283","pandora_session1","5","9005","5","filler","yes","1920","310","filler","filler","filler","filler","filler","filler","19"
"100","100","1801","1801","#000000","no","xpyriment","legacy","legacy","0","a","LoSyn/LoSem","uniform","1","undefined","undefined","NA","1","1","NA","14","1","14","1","NA","0","0","0","14","NA","0","14","1","0","0","16","0","0","1","14","1","14","1","14","1","0","NA","14","0","14","1","1","14","1","14","1","0","Thu Jul 14 12:44:26 2022","1000","1000","The main experiment item","yes","NA","Der Regisseur erkannte, dass die Schauspielerin, die über das schlechte Licht geschimpft hatte, immer ehrgeizig probte, um ihre Darbietung zu verbessern.","opensesame_pandora_session1.osexp","/home/vlab/Desktop/Pandora_Session1","no","Times New Roman","no","45","no","#ffffff","no","yes","1020","no","395","36","legacy","14","1","/home/vlab/Desktop/Pandora_Session1/logs/subject-2.csv","2","xpyriment","NA","Lentiform Loewenfeld","3.3.12b1","War es das Kind, das ein Buch las?","Das Kind mit der blauen Hose spielte im Sandkasten und die Mutter las ein Buch.","NA","0","f","NA","NA","NA","space","space","space","space","f","f","NA","1054","NA","NA","NA","5166","560849","8769","4459","1054","1200","NA","2","legacy","1","1024","2","48000","-16","experiment","2","even","fem","874114","600492","877501","588885","NA","1283","NA","611322","877001","NA","601652","877006","588390","1290","562145","893762","606862","570915","588386","873057","599289","NA","NA","873057","599289","611322","NA","NA","NA","877501","606818","588885","873057","599289","874112","600490","1283","pandora_session1","5","9005","5","experimental","yes","1920","410","11","17","15","14","6","16","21"
"100","100","1801","1801","#000000","no","xpyriment","legacy","legacy","0","d","HiSyn/HiSem","uniform","1","undefined","undefined","NA","1","1","NA","15","1","15","1","NA","0","0","0","15","NA","0","15","1","0","0","17","0","0","1","15","1","15","1","15","1","0","NA","15","0","15","1","1","15","1","15","1","0","Thu Jul 14 12:44:26 2022","1000","1000","The main experiment item","yes","NA","Der Teamarzt befürchtete, dass der Radprofi, der bezweifelt hatte, dass der Sponsor angenehm war, noch langfristig ausfiel, weil er unvernünftig war.","opensesame_pandora_session1.osexp","/home/vlab/Desktop/Pandora_Session1","no","Times New Roman","no","45","no","#ffffff","no","yes","1020","no","395","23","legacy","15","1","/home/vlab/Desktop/Pandora_Session1/logs/subject-2.csv","2","xpyriment","NA","Lentiform Loewenfeld","3.3.12b1","War es das Kind, das ein Buch las?","Das Kind mit der blauen Hose spielte im Sandkasten und die Mutter las ein Buch.","NA","0","f","NA","NA","NA","space","space","space","space","f","f","NA","1054","NA","NA","NA","5166","560849","8769","4459","1054","1200","NA","2","legacy","1","1024","2","48000","-16","experiment","2","even","masc","893766","600492","897159","588885","NA","1283","NA","611322","896661","NA","601652","896664","588390","1290","562145","913321","606862","570915","588386","873057","599289","NA","NA","873057","599289","611322","NA","NA","NA","897159","606818","588885","873057","599289","874112","600490","1283","pandora_session1","5","9005","5","experimental","yes","1920","270","12","18","16","15","6","17","21"
"100","100","1801","1801","#000000","no","xpyriment","legacy","legacy","0","f","filler","uniform","1","undefined","undefined","NA","1","1","NA","16","1","16","1","NA","0","0","0","16","NA","0","16","1","0","0","18","0","0","1","16","1","16","1","16","1","0","NA","16","0","16","1","1","16","1","16","1","0","Thu Jul 14 12:44:26 2022","1000","1000","The main experiment item","yes","NA","Die Masseurin faltete das frische Handtuch mit den bestickten Enden, bevor sie den Kunden, der pünktlich angekommen war, begrüßte.","opensesame_pandora_session1.osexp","/home/vlab/Desktop/Pandora_Session1","no","Times New Roman","no","45","no","#ffffff","no","yes","1020","no","395","154","legacy","16","1","/home/vlab/Desktop/Pandora_Session1/logs/subject-2.csv","NA","xpyriment","filler_question","Lentiform Loewenfeld","3.3.12b1","War es das Kind, das ein Buch las?","Das Kind mit der blauen Hose spielte im Sandkasten und die Mutter las ein Buch.","filler_question","0","f","NA","NA","NA","space","space","space","space","f","f","NA","1054","NA","NA","NA","5166","560849","8769","4459","1054","1200","NA","2","legacy","1","1024","2","48000","-16","experiment","2","even","filler","913324","600492","916555","588885","NA","1283","NA","611322","916057","NA","601652","916060","588390","1290","562145","930082","606862","570915","588386","873057","599289","NA","NA","873057","599289","611322","NA","NA","NA","916555","606818","588885","873057","599289","874112","600490","1283","pandora_session1","5","9005","5","filler","yes","1920","370","filler","filler","filler","filler","filler","filler","19"
"100","100","1801","1801","#000000","no","xpyriment","legacy","legacy","0","f","filler","uniform","1","undefined","undefined","NA","1","1","NA","17","1","17","1","NA","0","0","0","17","NA","0","17","1","0","0","19","0","0","1","17","1","17","1","17","1","0","NA","17","0","17","1","1","17","1","17","1","0","Thu Jul 14 12:44:26 2022","1000","1000","The main experiment item","yes","NA","Die gestresste Abiturientin, die die dringend empfohlene Literatur vollkommen ignoriert hatte, schummelte unauffällig, weil sie die Prüfung nicht wiederholen wollte.","opensesame_pandora_session1.osexp","/home/vlab/Desktop/Pandora_Session1","no","Times New Roman","no","45","no","#ffffff","no","yes","1020","no","395","138","legacy","17","1","/home/vlab/Desktop/Pandora_Session1/logs/subject-2.csv","NA","xpyriment","filler_question","Lentiform Loewenfeld","3.3.12b1","War es das Kind, das ein Buch las?","Das Kind mit der blauen Hose spielte im Sandkasten und die Mutter las ein Buch.","filler_question","0","f","NA","NA","NA","space","space","space","space","f","f","NA","1054","NA","NA","NA","5166","560849","8769","4459","1054","1200","NA","2","legacy","1","1024","2","48000","-16","experiment","2","even","filler","930085","600492","933387","588885","NA","1283","NA","611322","932889","NA","601652","932892","588390","1290","562145","948186","606862","570915","588386","873057","599289","NA","NA","873057","599289","611322","NA","NA","NA","933387","606818","588885","873057","599289","874112","600490","1283","pandora_session1","5","9005","5","filler","yes","1920","330","filler","filler","filler","filler","filler","filler","20"
"100","100","2025.8333333333333","2025.8333333333333","#000000","no","xpyriment","legacy","legacy","0","a","LoSyn/LoSem","uniform","1","undefined","undefined","f","1","1","NA","18","1","18","1","NA","0","0","0","18","NA","0","18","1","0","0","20","0","0","1","18","1","18","1","18","1","0","NA","18","0","18","1","1","18","1","18","1","0","Thu Jul 14 12:44:26 2022","1000","1000","The main experiment item","yes","War es die Ladeninhaberin, die geschwärmt hatte?","Die Ladeninhaberin vermutete, dass der Friseur, der von der tollen Schere geschwärmt hatte, immer unentwegt plauderte, um das Klischee zu erfüllen.","opensesame_pandora_session1.osexp","/home/vlab/Desktop/Pandora_Session1","no","Times New Roman","no","45","no","#ffffff","no","yes","1020","yes","395","16","legacy","18","1","/home/vlab/Desktop/Pandora_Session1/logs/subject-2.csv","2","xpyriment","intro","Lentiform Loewenfeld","3.3.12b1","War es das Kind, das ein Buch las?","Das Kind mit der blauen Hose spielte im Sandkasten und die Mutter las ein Buch.","relcl_verb","0","f","NA","NA","NA","space","space","space","space","f","f","NA","3150","NA","NA","NA","5166","560849","8769","4459","3150","1200","NA","2","legacy","1","1024","2","48000","-16","experiment","2","even","masc","948189","600492","951596","588885","NA","1283","NA","611322","951096","NA","601652","951101","588390","1290","562145","970856","606862","570915","588386","967706","599289","NA","NA","967706","599289","611322","NA","NA","NA","951596","606818","588885","967706","599289","970856","600490","1283","pandora_session1","6","12155","6","experimental","yes","1920","370","11","17","15","14","6","16","21"
"100","100","2025.8333333333333","2025.8333333333333","#000000","no","xpyriment","legacy","legacy","0","f","filler","uniform","1","undefined","undefined","NA","1","1","NA","19","1","19","1","NA","0","0","0","19","NA","0","19","1","0","0","21","0","0","1","19","1","19","1","19","1","0","NA","19","0","19","1","1","19","1","19","1","0","Thu Jul 14 12:44:26 2022","1000","1000","The main experiment item","yes","NA","Die Schneiderin, die sehr geschickt war, bestickte die Decke mit einem aufwändigen Muster, nachdem sie die Vorlage aufgelegt hatte.","opensesame_pandora_session1.osexp","/home/vlab/Desktop/Pandora_Session1","no","Times New Roman","no","45","no","#ffffff","no","yes","1020","no","395","149","legacy","19","1","/home/vlab/Desktop/Pandora_Session1/logs/subject-2.csv","NA","xpyriment","filler_question","Lentiform Loewenfeld","3.3.12b1","War es das Kind, das ein Buch las?","Das Kind mit der blauen Hose spielte im Sandkasten und die Mutter las ein Buch.","filler_question","0","f","NA","NA","NA","space","space","space","space","f","f","NA","3150","NA","NA","NA","5166","560849","8769","4459","3150","1200","NA","2","legacy","1","1024","2","48000","-16","experiment","2","even","filler","970859","600492","974079","588885","NA","1283","NA","611322","973580","NA","601652","973584","588390","1290","562145","987623","606862","570915","588386","967706","599289","NA","NA","967706","599289","611322","NA","NA","NA","974079","606818","588885","967706","599289","970856","600490","1283","pandora_session1","6","12155","6","filler","yes","1920","310","filler","filler","filler","filler","filler","filler","19"
"100","100","2025.8333333333333","2025.8333333333333","#000000","no","xpyriment","legacy","legacy","0","b","LoSyn/HiSem","uniform","1","undefined","undefined","NA","1","1","NA","20","1","20","1","NA","0","0","0","20","NA","0","20","1","0","0","22","0","0","1","20","1","20","1","20","1","0","NA","20","0","20","1","1","20","1","20","1","0","Thu Jul 14 12:44:26 2022","1000","1000","The main experiment item","yes","NA","Der Investor befürchtete, dass der Eigentümer, der von dem guten Unternehmer erzählt hatte, einfach voreilig verkaufte, bevor Gewinne maximiert wurden.","opensesame_pandora_session1.osexp","/home/vlab/Desktop/Pandora_Session1","no","Times New Roman","no","45","no","#ffffff","no","yes","1020","no","395","53","legacy","20","1","/home/vlab/Desktop/Pandora_Session1/logs/subject-2.csv","2","xpyriment","NA","Lentiform Loewenfeld","3.3.12b1","War es das Kind, das ein Buch las?","Das Kind mit der blauen Hose spielte im Sandkasten und die Mutter las ein Buch.","NA","0","f","NA","NA","NA","space","space","space","space","f","f","NA","3150","NA","NA","NA","5166","560849","8769","4459","3150","1200","NA","2","legacy","1","1024","2","48000","-16","experiment","2","even","masc","987628","600492","990928","588885","NA","1283","NA","611322","990429","NA","601652","990433","588390","1290","562145","1006477","606862","570915","588386","967706","599289","NA","NA","967706","599289","611322","NA","NA","NA","990928","606818","588885","967706","599289","970856","600490","1283","pandora_session1","6","12155","6","experimental","yes","1920","330","11","17","15","14","6","16","20"
"100","100","2025.8333333333333","2025.8333333333333","#000000","no","xpyriment","legacy","legacy","0","b","LoSyn/HiSem","uniform","1","undefined","undefined","NA","1","1","NA","21","1","21","1","NA","0","0","0","21","NA","0","21","1","0","0","23","0","0","1","21","1","21","1","21","1","0","NA","21","0","21","1","1","21","1","21","1","0","Thu Jul 14 12:44:26 2022","1000","1000","The main experiment item","yes","NA","Der Staatsanwalt sagte, dass die Zeugin, die über den brutalen Attentäter ausgesagt hatte, weiterhin bereitwillig kooperierte, weil sie Gerechtigkeit wollte.","opensesame_pandora_session1.osexp","/home/vlab/Desktop/Pandora_Session1","no","Times New Roman","no","45","no","#ffffff","no","yes","1020","no","395","37","legacy","21","1","/home/vlab/Desktop/Pandora_Session1/logs/subject-2.csv","2","xpyriment","NA","Lentiform Loewenfeld","3.3.12b1","War es das Kind, das ein Buch las?","Das Kind mit der blauen Hose spielte im Sandkasten und die Mutter las ein Buch.","NA","0","f","NA","NA","NA","space","space","space","space","f","f","NA","3150","NA","NA","NA","5166","560849","8769","4459","3150","1200","NA","2","legacy","1","1024","2","48000","-16","experiment","2","even","fem","1006480","600492","1009808","588885","NA","1283","NA","611322","1009310","NA","601652","1009313","588390","1290","562145","1025417","606862","570915","588386","967706","599289","NA","NA","967706","599289","611322","NA","NA","NA","1009808","606818","588885","967706","599289","970856","600490","1283","pandora_session1","6","12155","6","experimental","yes","1920","330","11","17","15","14","6","16","20"
"100","100","2112.8571428571427","2112.8571428571427","#000000","no","xpyriment","legacy","legacy","0","f","filler","uniform","1","undefined","undefined","f","1","1","NA","22","1","22","1","NA","0","0","0","22","NA","0","22","1","0","0","24","0","0","1","22","1","22","1","22","1","0","NA","22","0","22","1","1","22","1","22","1","0","Thu Jul 14 12:44:26 2022","1000","1000","The main experiment item","yes","War der linke Fuß des Stürmers verletzt?","Der Stürmer, dessen rechter Fuß verletzt war, schoss den Ball mit dem linken Fuß und traf die linke obere Torecke.","opensesame_pandora_session1.osexp","/home/vlab/Desktop/Pandora_Session1","no","Times New Roman","no","45","no","#ffffff","no","yes","1020","yes","395","129","legacy","22","1","/home/vlab/Desktop/Pandora_Session1/logs/subject-2.csv","NA","xpyriment","filler_question","Lentiform Loewenfeld","3.3.12b1","War es das Kind, das ein Buch las?","Das Kind mit der blauen Hose spielte im Sandkasten und die Mutter las ein Buch.","filler_question","0","f","NA","NA","NA","space","space","space","space","f","f","NA","2635","NA","NA","NA","5166","560849","8769","4459","2635","1200","NA","2","legacy","1","1024","2","48000","-16","experiment","2","even","filler","1025421","600492","1028731","588885","NA","1283","NA","611322","1028231","NA","601652","1028236","588390","1290","562145","1045151","606862","570915","588386","1042515","599289","NA","NA","1042515","599289","611322","NA","NA","NA","1028731","606818","588885","1042515","599289","1045151","600490","1283","pandora_session1","7","14790","7","filler","yes","1920","350","filler","filler","filler","filler","filler","filler","20"
"100","100","2112.8571428571427","2112.8571428571427","#000000","no","xpyriment","legacy","legacy","0","f","filler","uniform","1","undefined","undefined","NA","1","1","NA","23","1","23","1","NA","0","0","0","23","NA","0","23","1","0","0","25","0","0","1","23","1","23","1","23","1","0","NA","23","0","23","1","1","23","1","23","1","0","Thu Jul 14 12:44:26 2022","1000","1000","The main experiment item","yes","NA","Die Rettungsschwimmerin beobachtete, dass die Surferin, die den riesigen Hai gesichtet hatte, gerade so noch entkam, weil ein Boot in der Nähe war.","opensesame_pandora_session1.osexp","/home/vlab/Desktop/Pandora_Session1","no","Times New Roman","no","45","no","#ffffff","no","yes","1020","no","395","136","legacy","23","1","/home/vlab/Desktop/Pandora_Session1/logs/subject-2.csv","NA","xpyriment","filler_question","Lentiform Loewenfeld","3.3.12b1","War es das Kind, das ein Buch las?","Das Kind mit der blauen Hose spielte im Sandkasten und die Mutter las ein Buch.","filler_question","0","f","NA","NA","NA","space","space","space","space","f","f","NA","2635","NA","NA","NA","5166","560849","8769","4459","2635","1200","NA","2","legacy","1","1024","2","48000","-16","experiment","2","even","filler","1045153","600492","1048711","588885","NA","1283","NA","611322","1048212","NA","601652","1048215","588390","1290","562145","1064884","606862","570915","588386","1042515","599289","NA","NA","1042515","599289","611322","NA","NA","NA","1048711","606818","588885","1042515","599289","1045151","600490","1283","pandora_session1","7","14790","7","filler","yes","1920","270","filler","filler","filler","filler","filler","filler","23"
"100","100","2112.8571428571427","2112.8571428571427","#000000","no","xpyriment","legacy","legacy","0","a","LoSyn/LoSem","uniform","1","undefined","undefined","NA","1","1","NA","24","1","24","1","NA","0","0","0","24","NA","0","24","1","0","0","26","0","0","1","24","1","24","1","24","1","0","NA","24","0","24","1","1","24","1","24","1","0","Thu Jul 14 12:44:26 2022","1000","1000","The main experiment item","yes","NA","Der Nachfolger erwartete, dass der Geschäftsführer, der auf den erfolgreichen Abschluss gehofft hatte, jetzt schleunigst zurücktrat, um Platz zu machen.","opensesame_pandora_session1.osexp","/home/vlab/Desktop/Pandora_Session1","no","Times New Roman","no","45","no","#ffffff","no","yes","1020","no","395","28","legacy","24","1","/home/vlab/Desktop/Pandora_Session1/logs/subject-2.csv","2","xpyriment","NA","Lentiform Loewenfeld","3.3.12b1","War es das Kind, das ein Buch las?","Das Kind mit der blauen Hose spielte im Sandkasten und die Mutter las ein Buch.","NA","0","f","NA","NA","NA","space","space","space","space","f","f","NA","2635","NA","NA","NA","5166","560849","8769","4459","2635","1200","NA","2","legacy","1","1024","2","48000","-16","experiment","2","even","masc","1064888","600492","1068196","588885","NA","1283","NA","611322","1067696","NA","601652","1067701","588390","1290","562145","1083781","606862","570915","588386","1042515","599289","NA","NA","1042515","599289","611322","NA","NA","NA","1068196","606818","588885","1042515","599289","1045151","600490","1283","pandora_session1","7","14790","7","experimental","yes","1920","330","11","17","15","14","6","16","20"
"undefined","undefined","undefined","undefined","#000000","no","xpyriment","legacy","legacy","0","a","LoSyn/LoSem","uniform","0","undefined","undefined","NA","1","1","NA","25","1","25","1","NA","0","0","0","25","0","0","25","1","0","0","27","0","0","1","25","1","25","1","25","1","0","NA","25","0","25","1","1","25","1","25","1","0","Thu Jul 14 12:44:26 2022","1000","1000","The main experiment item","yes","NA","Der Bruder berichtete, dass der Kranke, der von dem alternativen Medikament gehört hatte, zusätzlich regelmäßig meditierte, um die Schmerzen zu lindern.","opensesame_pandora_session1.osexp","/home/vlab/Desktop/Pandora_Session1","no","Times New Roman","no","45","no","#ffffff","no","yes","1020","no","395","52","legacy","25","1","/home/vlab/Desktop/Pandora_Session1/logs/subject-2.csv","2","xpyriment","NA","Lentiform Loewenfeld","3.3.12b1","War es das Kind, das ein Buch las?","Das Kind mit der blauen Hose spielte im Sandkasten und die Mutter las ein Buch.","NA","0","1","NA","NA","1","space","space","space","space","f","f","NA","199703","NA","NA","199703","5166","560849","8769","4459","2635","1200","NA","2","legacy","1","1024","2","48000","-16","experiment","2","even","masc","1083785","600492","1287037","588885","NA","1283","NA","611322","1286538","1084940","601652","1286542","588390","1290","562145","1303279","606862","570915","588386","1042515","599289","NA","NA","1042515","599289","611322","NA","1084785","NA","1287037","606818","588885","1042515","599289","1045151","600490","1283","pandora_session1","0","0","0","experimental","yes","1920","350","11","17","15","14","6","16","21"
"100","100","4961","4961","#000000","no","xpyriment","legacy","legacy","0","a","LoSyn/LoSem","uniform","1","undefined","undefined","j","1","1","NA","26","1","26","1","NA","0","0","0","26","0","0","26","1","0","0","28","0","0","1","26","1","26","1","26","1","0","NA","26","0","26","1","1","26","1","26","1","0","Thu Jul 14 12:44:26 2022","1000","1000","The main experiment item","yes","War es der Vormund, der das ahnte?","Der Vormund ahnte, dass der Ersttäter, der an die überflüssige Maßnahme gedacht hatte, ganz bewusst provozierte, um ihn zu ärgern.","opensesame_pandora_session1.osexp","/home/vlab/Desktop/Pandora_Session1","no","Times New Roman","no","45","no","#ffffff","no","yes","1020","yes","395","12","legacy","26","1","/home/vlab/Desktop/Pandora_Session1/logs/subject-2.csv","2","xpyriment","intro","Lentiform Loewenfeld","3.3.12b1","War es das Kind, das ein Buch las?","Das Kind mit der blauen Hose spielte im Sandkasten und die Mutter las ein Buch.","intro_verb","0","j","NA","NA","1","space","space","space","space","j","f","NA","4961","NA","NA","199703","5166","560849","8769","4459","4961","1200","NA","2","legacy","1","1024","2","48000","-16","experiment","2","even","masc","1303283","600492","1306583","588885","NA","1283","NA","611322","1306085","1084940","601652","1306088","588390","1290","562145","1326798","606862","570915","588386","1321836","599289","NA","NA","1321836","599289","611322","NA","1084785","NA","1306583","606818","588885","1321836","599289","1326798","600490","1283","pandora_session1","1","4961","1","experimental","yes","1920","330","11","17","15","14","6","16","20"
"100","100","4093.5","4093.5","#000000","no","xpyriment","legacy","legacy","0","a","LoSyn/LoSem","uniform","1","undefined","undefined","j","1","1","NA","27","1","27","1","NA","0","0","0","27","0","0","27","1","0","0","29","0","0","1","27","1","27","1","27","1","0","NA","27","0","27","1","1","27","1","27","1","0","Thu Jul 14 12:44:26 2022","1000","1000","The main experiment item","yes","War die Bestellung dreist?","Die Aushilfe sagte, dass der Bäcker, der über die dreiste Bestellung gemeckert hatte, morgens immer hetzte, um alles fertig zu kriegen.","opensesame_pandora_session1.osexp","/home/vlab/Desktop/Pandora_Session1","no","Times New Roman","no","45","no","#ffffff","no","yes","1020","yes","395","8","legacy","27","1","/home/vlab/Desktop/Pandora_Session1/logs/subject-2.csv","2","xpyriment","distractor","Lentiform Loewenfeld","3.3.12b1","War es das Kind, das ein Buch las?","Das Kind mit der blauen Hose spielte im Sandkasten und die Mutter las ein Buch.","adj","0","j","NA","NA","1","space","space","space","space","j","f","NA","3226","NA","NA","199703","5166","560849","8769","4459","3226","1200","NA","2","legacy","1","1024","2","48000","-16","experiment","2","even","masc","1326800","600492","1330180","588885","NA","1283","NA","611322","1329681","1084940","601652","1329684","588390","1290","562145","1349396","606862","570915","588386","1346170","599289","NA","NA","1346170","599289","611322","NA","1084785","NA","1330180","606818","588885","1346170","599289","1349396","600490","1283","pandora_session1","2","8187","2","experimental","yes","1920","350","11","17","15","14","6","16","21"
"100","100","4093.5","4093.5","#000000","no","xpyriment","legacy","legacy","0","f","filler","uniform","1","undefined","undefined","NA","1","1","NA","28","1","28","1","NA","0","0","0","28","0","0","28","1","0","0","30","0","0","1","28","1","28","1","28","1","0","NA","28","0","28","1","1","28","1","28","1","0","Thu Jul 14 12:44:26 2022","1000","1000","The main experiment item","yes","NA","Die Hausfrau beobachtete kritisch, wie der unfreundliche Monteur die alte Waschmaschine, deren Motor kaputt war, ausbaute.","opensesame_pandora_session1.osexp","/home/vlab/Desktop/Pandora_Session1","no","Times New Roman","no","45","no","#ffffff","no","yes","1020","no","395","152","legacy","28","1","/home/vlab/Desktop/Pandora_Session1/logs/subject-2.csv","NA","xpyriment","filler_question","Lentiform Loewenfeld","3.3.12b1","War es das Kind, das ein Buch las?","Das Kind mit der blauen Hose spielte im Sandkasten und die Mutter las ein Buch.","filler_question","0","j","NA","NA","1","space","space","space","space","j","f","NA","3226","NA","NA","199703","5166","560849","8769","4459","3226","1200","NA","2","legacy","1","1024","2","48000","-16","experiment","2","even","filler","1349399","600492","1352408","588885","NA","1283","NA","611322","1351909","1084940","601652","1351912","588390","1290","562145","1364053","606862","570915","588386","1346170","599289","NA","NA","1346170","599289","611322","NA","1084785","NA","1352408","606818","588885","1346170","599289","1349396","600490","1283","pandora_session1","2","8187","2","filler","yes","1920","370","filler","filler","filler","filler","filler","filler","16"
"100","100","4093.5","4093.5","#000000","no","xpyriment","legacy","legacy","0","c","HiSyn/LoSem","uniform","1","undefined","undefined","NA","1","1","NA","29","1","29","1","NA","0","0","0","29","0","0","29","1","0","0","31","0","0","1","29","1","29","1","29","1","0","NA","29","0","29","1","1","29","1","29","1","0","Thu Jul 14 12:44:26 2022","1000","1000","The main experiment item","yes","NA","Der Anästhesist wusste, dass die Ärztin, die gewarnt hatte, dass der Fallschirmsprung riskant war, dennoch konzentriert operierte, weil es ihre Berufsehre verlangte.","opensesame_pandora_session1.osexp","/home/vlab/Desktop/Pandora_Session1","no","Times New Roman","no","45","no","#ffffff","no","yes","1020","no","395","50","legacy","29","1","/home/vlab/Desktop/Pandora_Session1/logs/subject-2.csv","2","xpyriment","NA","Lentiform Loewenfeld","3.3.12b1","War es das Kind, das ein Buch las?","Das Kind mit der blauen Hose spielte im Sandkasten und die Mutter las ein Buch.","NA","0","j","NA","NA","1","space","space","space","space","j","f","NA","3226","NA","NA","199703","5166","560849","8769","4459","3226","1200","NA","2","legacy","1","1024","2","48000","-16","experiment","2","even","fem","1364056","600492","1367526","588885","NA","1283","NA","611322","1367027","1084940","601652","1367030","588390","1290","562145","1384546","606862","570915","588386","1346170","599289","NA","NA","1346170","599289","611322","NA","1084785","NA","1367526","606818","588885","1346170","599289","1349396","600490","1283","pandora_session1","2","8187","2","experimental","yes","1920","390","12","18","16","15","6","17","22"
"100","100","4093.5","4093.5","#000000","no","xpyriment","legacy","legacy","0","f","filler","uniform","1","undefined","undefined","NA","1","1","NA","30","1","30","1","NA","0","0","0","30","0","0","30","1","0","0","32","0","0","1","30","1","30","1","30","1","0","NA","30","0","30","1","1","30","1","30","1","0","Thu Jul 14 12:44:26 2022","1000","1000","The main experiment item","yes","NA","Er fand, dass die überzeugte Aktivistin, die sich jahrelang energisch für den Umweltschutz eingesetzt hatte, langsam einen Gang zurückschalten könnte.","opensesame_pandora_session1.osexp","/home/vlab/Desktop/Pandora_Session1","no","Times New Roman","no","45","no","#ffffff","no","yes","1020","no","395","156","legacy","30","1","/home/vlab/Desktop/Pandora_Session1/logs/subject-2.csv","NA","xpyriment","filler_question","Lentiform Loewenfeld","3.3.12b1","War es das Kind, das ein Buch las?","Das Kind mit der blauen Hose spielte im Sandkasten und die Mutter las ein Buch.","filler_question","0","j","NA","NA","1","space","space","space","space","j","f","NA","3226","NA","NA","199703","5166","560849","8769","4459","3226","1200","NA","2","legacy","1","1024","2","48000","-16","experiment","2","even","filler","1384550","600492","1387888","588885","NA","1283","NA","611322","1387388","1084940","601652","1387392","588390","1290","562145","1402389","606862","570915","588386","1346170","599289","NA","NA","1346170","599289","611322","NA","1084785","NA","1387888","606818","588885","1346170","599289","1349396","600490","1283","pandora_session1","2","8187","2","filler","yes","1920","330","filler","filler","filler","filler","filler","filler","20"
"100","100","4093.5","4093.5","#000000","no","xpyriment","legacy","legacy","0","b","LoSyn/HiSem","uniform","1","undefined","undefined","NA","1","1","NA","31","1","31","1","NA","0","0","0","31","0","0","31","1","0","0","33","0","0","1","31","1","31","1","31","1","0","NA","31","0","31","1","1","31","1","31","1","0","Thu Jul 14 12:44:26 2022","1000","1000","The main experiment item","yes","NA","Der Außenminister verurteilte, dass der Diktator, der von dem unmenschlichen Funktionär gewusst hatte, weiterhin skrupellos regierte, obwohl es Proteste gab.","opensesame_pandora_session1.osexp","/home/vlab/Desktop/Pandora_Session1","no","Times New Roman","no","45","no","#ffffff","no","yes","1020","no","395","49","legacy","31","1","/home/vlab/Desktop/Pandora_Session1/logs/subject-2.csv","2","xpyriment","NA","Lentiform Loewenfeld","3.3.12b1","War es das Kind, das ein Buch las?","Das Kind mit der blauen Hose spielte im Sandkasten und die Mutter las ein Buch.","NA","0","j","NA","NA","1","space","space","space","space","j","f","NA","3226","NA","NA","199703","5166","560849","8769","4459","3226","1200","NA","2","legacy","1","1024","2","48000","-16","experiment","2","even","masc","1402392","600492","1405690","588885","NA","1283","NA","611322","1405191","1084940","601652","1405195","588390","1290","562145","1421420","606862","570915","588386","1346170","599289","NA","NA","1346170","599289","611322","NA","1084785","NA","1405690","606818","588885","1346170","599289","1349396","600490","1283","pandora_session1","2","8187","2","experimental","yes","1920","270","11","17","15","14","6","16","20"
"100","100","3472.6666666666665","3472.6666666666665","#000000","no","xpyriment","legacy","legacy","0","b","LoSyn/HiSem","uniform","1","undefined","undefined","f","1","1","NA","32","1","32","1","NA","0","0","0","32","0","0","32","1","0","0","34","0","0","1","32","1","32","1","32","1","0","NA","32","0","32","1","1","32","1","32","1","0","Thu Jul 14 12:44:26 2022","1000","1000","The main experiment item","yes","War es der Vorgesetzte, der schamlos log?","Der Journalist entdeckte, dass die Kollegin, die von dem grauenhaften Vorgesetzten berichtet hatte, gelegentlich schamlos log, um Informationen zu erhalten.","opensesame_pandora_session1.osexp","/home/vlab/Desktop/Pandora_Session1","no","Times New Roman","no","45","no","#ffffff","no","yes","1020","yes","395","1","legacy","32","1","/home/vlab/Desktop/Pandora_Session1/logs/subject-2.csv","2","xpyriment","distractor","Lentiform Loewenfeld","3.3.12b1","War es das Kind, das ein Buch las?","Das Kind mit der blauen Hose spielte im Sandkasten und die Mutter las ein Buch.","main_verb","0","f","NA","NA","1","space","space","space","space","f","f","NA","2231","NA","NA","199703","5166","560849","8769","4459","2231","1200","NA","2","legacy","1","1024","2","48000","-16","experiment","2","even","fem","1421423","600492","1424734","588885","NA","1283","NA","611322","1424236","1084940","601652","1424239","588390","1290","562145","1442637","606862","570915","588386","1440406","599289","NA","NA","1440406","599289","611322","NA","1084785","NA","1424734","606818","588885","1440406","599289","1442637","600490","1283","pandora_session1","3","10418","3","experimental","yes","1920","370","11","17","15","14","6","16","20"
"100","100","3169","3169","#000000","no","xpyriment","legacy","legacy","0","f","filler","uniform","1","undefined","undefined","f","1","1","NA","33","1","33","1","NA","0","0","0","33","0","0","33","1","0","0","35","0","0","1","33","1","33","1","33","1","0","NA","33","0","33","1","1","33","1","33","1","0","Thu Jul 14 12:44:26 2022","1000","1000","The main experiment item","yes","Schwänzte der Jugendliche oft die Schule?","Der Jugendliche war genervt, weil seine Freundin, die nicht studieren wollte, oft die Schule schwänzte, um Computer zu spielen.","opensesame_pandora_session1.osexp","/home/vlab/Desktop/Pandora_Session1","no","Times New Roman","no","45","no","#ffffff","no","yes","1020","yes","395","127","legacy","33","1","/home/vlab/Desktop/Pandora_Session1/logs/subject-2.csv","NA","xpyriment","filler_question","Lentiform Loewenfeld","3.3.12b1","War es das Kind, das ein Buch las?","Das Kind mit der blauen Hose spielte im Sandkasten und die Mutter las ein Buch.","filler_question","0","f","NA","NA","1","space","space","space","space","f","f","NA","2258","NA","NA","199703","5166","560849","8769","4459","2258","1200","NA","2","legacy","1","1024","2","48000","-16","experiment","2","even","filler","1442640","600492","1445866","588885","NA","1283","NA","611322","1445368","1084940","601652","1445371","588390","1290","562145","1461597","606862","570915","588386","1459338","599289","NA","NA","1459338","599289","611322","NA","1084785","NA","1445866","606818","588885","1459338","599289","1461597","600490","1283","pandora_session1","4","12676","4","filler","yes","1920","350","filler","filler","filler","filler","filler","filler","19"
"100","100","2889.8","2889.8","#000000","no","xpyriment","legacy","legacy","0","a","LoSyn/LoSem","uniform","1","undefined","undefined","f","1","1","NA","34","1","34","1","NA","0","0","0","34","0","0","34","1","0","0","36","0","0","1","34","1","34","1","34","1","0","NA","34","0","34","1","1","34","1","34","1","0","Thu Jul 14 12:44:26 2022","1000","1000","The main experiment item","yes","War es die Lehrerin, die geschwärmt hatte?","Die Lehrerin empfahl, dass die Schülerin, die von dem witzigen Film geschwärmt hatte, nachmittags fleißig lernte, um eine gute Note zu bekommen.","opensesame_pandora_session1.osexp","/home/vlab/Desktop/Pandora_Session1","no","Times New Roman","no","45","no","#ffffff","no","yes","1020","yes","395","20","legacy","34","1","/home/vlab/Desktop/Pandora_Session1/logs/subject-2.csv","2","xpyriment","intro","Lentiform Loewenfeld","3.3.12b1","War es das Kind, das ein Buch las?","Das Kind mit der blauen Hose spielte im Sandkasten und die Mutter las ein Buch.","relcl_verb","0","f","NA","NA","1","space","space","space","space","f","f","NA","1773","NA","NA","199703","5166","560849","8769","4459","1773","1200","NA","2","legacy","1","1024","2","48000","-16","experiment","2","even","fem","1461599","600492","1465061","588885","NA","1283","NA","611322","1464563","1084940","601652","1464566","588390","1290","562145","1483540","606862","570915","588386","1481765","599289","NA","NA","1481766","599289","611322","NA","1084785","NA","1465061","606818","588885","1481765","599289","1483540","600490","1283","pandora_session1","5","14449","5","experimental","yes","1920","370","11","17","15","14","6","16","22"
"100","100","2889.8","2889.8","#000000","no","xpyriment","legacy","legacy","0","f","filler","uniform","1","undefined","undefined","NA","1","1","NA","35","1","35","1","NA","0","0","0","35","0","0","35","1","0","0","37","0","0","1","35","1","35","1","35","1","0","NA","35","0","35","1","1","35","1","35","1","0","Thu Jul 14 12:44:26 2022","1000","1000","The main experiment item","yes","NA","Sie vermutete, dass die eingeschnappte Taxifahrerin, die sich gegenüber dem Kunden unhöflich benommen hatte, auch das Taxameter manipulieren würde.","opensesame_pandora_session1.osexp","/home/vlab/Desktop/Pandora_Session1","no","Times New Roman","no","45","no","#ffffff","no","yes","1020","no","395","160","legacy","35","1","/home/vlab/Desktop/Pandora_Session1/logs/subject-2.csv","NA","xpyriment","filler_question","Lentiform Loewenfeld","3.3.12b1","War es das Kind, das ein Buch las?","Das Kind mit der blauen Hose spielte im Sandkasten und die Mutter las ein Buch.","filler_question","0","f","NA","NA","1","space","space","space","space","f","f","NA","1773","NA","NA","199703","5166","560849","8769","4459","1773","1200","NA","2","legacy","1","1024","2","48000","-16","experiment","2","even","filler","1483542","600492","1486765","588885","NA","1283","NA","611322","1486267","1084940","601652","1486270","588390","1290","562145","1500630","606862","570915","588386","1481765","599289","NA","NA","1481766","599289","611322","NA","1084785","NA","1486765","606818","588885","1481765","599289","1483540","600490","1283","pandora_session1","5","14449","5","filler","yes","1920","310","filler","filler","filler","filler","filler","filler","19"
"100","100","2889.8","2889.8","#000000","no","xpyriment","legacy","legacy","0","a","LoSyn/LoSem","uniform","1","undefined","undefined","NA","1","1","NA","36","1","36","1","NA","0","0","0","36","0","0","36","1","0","0","38","0","0","1","36","1","36","1","36","1","0","NA","36","0","36","1","1","36","1","36","1","0","Thu Jul 14 12:44:26 2022","1000","1000","The main experiment item","yes","NA","Der Assistent hoffte, dass die Dichterin, die von der hartnäckigen Schreibblockade geträumt hatte, dennoch weiter schrieb, um das Werk zu vollenden.","opensesame_pandora_session1.osexp","/home/vlab/Desktop/Pandora_Session1","no","Times New Roman","no","45","no","#ffffff","no","yes","1020","no","395","60","legacy","36","1","/home/vlab/Desktop/Pandora_Session1/logs/subject-2.csv","2","xpyriment","NA","Lentiform Loewenfeld","3.3.12b1","War es das Kind, das ein Buch las?","Das Kind mit der blauen Hose spielte im Sandkasten und die Mutter las ein Buch.","NA","0","f","NA","NA","1","space","space","space","space","f","f","NA","1773","NA","NA","199703","5166","560849","8769","4459","1773","1200","NA","2","legacy","1","1024","2","48000","-16","experiment","2","even","fem","1500634","600492","1504026","588885","NA","1283","NA","611322","1503527","1084940","601652","1503531","588390","1290","562145","1520288","606862","570915","588386","1481765","599289","NA","NA","1481766","599289","611322","NA","1084785","NA","1504026","606818","588885","1481765","599289","1483540","600490","1283","pandora_session1","5","14449","5","experimental","yes","1920","390","11","17","15","14","6","16","21"
"100","100","2889.8","2889.8","#000000","no","xpyriment","legacy","legacy","0","f","filler","uniform","1","undefined","undefined","NA","1","1","NA","37","1","37","1","NA","0","0","0","37","0","0","37","1","0","0","39","0","0","1","37","1","37","1","37","1","0","NA","37","0","37","1","1","37","1","37","1","0","Thu Jul 14 12:44:26 2022","1000","1000","The main experiment item","yes","NA","Die Maklerin, die das französische Weinfest organisiert hatte, lächelte jeden Besucher am Stand an, weil sie Interesse heucheln wollte.","opensesame_pandora_session1.osexp","/home/vlab/Desktop/Pandora_Session1","no","Times New Roman","no","45","no","#ffffff","no","yes","1020","no","395","135","legacy","37","1","/home/vlab/Desktop/Pandora_Session1/logs/subject-2.csv","NA","xpyriment","filler_question","Lentiform Loewenfeld","3.3.12b1","War es das Kind, das ein Buch las?","Das Kind mit der blauen Hose spielte im Sandkasten und die Mutter las ein Buch.","filler_question","0","f","NA","NA","1","space","space","space","space","f","f","NA","1773","NA","NA","199703","5166","560849","8769","4459","1773","1200","NA","2","legacy","1","1024","2","48000","-16","experiment","2","even","filler","1520291","600492","1523521","588885","NA","1283","NA","611322","1523021","1084940","601652","1523026","588390","1290","562145","1537148","606862","570915","588386","1481765","599289","NA","NA","1481766","599289","611322","NA","1084785","NA","1523521","606818","588885","1481765","599289","1483540","600490","1283","pandora_session1","5","14449","5","filler","yes","1920","330","filler","filler","filler","filler","filler","filler","19"
"100","100","3070.8333333333335","3070.8333333333335","#000000","no","xpyriment","legacy","legacy","0","c","HiSyn/LoSem","uniform","1","undefined","undefined","j","1","1","NA","38","1","38","1","NA","0","0","0","38","0","0","38","1","0","0","40","0","0","1","38","1","38","1","38","1","0","NA","38","0","38","1","1","38","1","38","1","0","Thu Jul 14 12:44:26 2022","1000","1000","The main experiment item","yes","War die Software unzuverlässig?","Die Sekretärin erklärte, dass die Steuerberaterin, die gewarnt hatte, dass die Software unzuverlässig war, immer noch telefonierte, um eine Fristverlängerung zu erwirken.","opensesame_pandora_session1.osexp","/home/vlab/Desktop/Pandora_Session1","no","Times New Roman","no","45","no","#ffffff","no","yes","1020","yes","395","10","legacy","38","1","/home/vlab/Desktop/Pandora_Session1/logs/subject-2.csv","2","xpyriment","distractor","Lentiform Loewenfeld","3.3.12b1","War es das Kind, das ein Buch las?","Das Kind mit der blauen Hose spielte im Sandkasten und die Mutter las ein Buch.","adj","0","j","NA","NA","1","space","space","space","space","j","f","NA","3976","NA","NA","199703","5166","560849","8769","4459","3976","1200","NA","2","legacy","1","1024","2","48000","-16","experiment","2","even","fem","1537151","600492","1540613","588885","NA","1283","NA","611322","1540115","1084940","601652","1540118","588390","1290","562145","1561692","606862","570915","588386","1557716","599289","NA","NA","1557716","599289","611322","NA","1084785","NA","1540613","606818","588885","1557716","599289","1561692","600490","1283","pandora_session1","6","18425","6","experimental","yes","1920","370","12","18","16","15","6","17","22"
"100","100","3070.8333333333335","3070.8333333333335","#000000","no","xpyriment","legacy","legacy","0","b","LoSyn/HiSem","uniform","1","undefined","undefined","NA","1","1","NA","39","1","39","1","NA","0","0","0","39","0","0","39","1","0","0","41","0","0","1","39","1","39","1","39","1","0","NA","39","0","39","1","1","39","1","39","1","0","Thu Jul 14 12:44:26 2022","1000","1000","The main experiment item","yes","NA","Die Esoterikerin befürwortete, dass die Bekannte, die von der brillanten Therapeutin erzählt hatte, sonntags oft ausschlief, um entspannt in den Tag zu starten.","opensesame_pandora_session1.osexp","/home/vlab/Desktop/Pandora_Session1","no","Times New Roman","no","45","no","#ffffff","no","yes","1020","no","395","41","legacy","39","1","/home/vlab/Desktop/Pandora_Session1/logs/subject-2.csv","2","xpyriment","NA","Lentiform Loewenfeld","3.3.12b1","War es das Kind, das ein Buch las?","Das Kind mit der blauen Hose spielte im Sandkasten und die Mutter las ein Buch.","NA","0","j","NA","NA","1","space","space","space","space","j","f","NA","3976","NA","NA","199703","5166","560849","8769","4459","3976","1200","NA","2","legacy","1","1024","2","48000","-16","experiment","2","even","fem","1561695","600492","1565241","588885","NA","1283","NA","611322","1564743","1084940","601652","1564746","588390","1290","562145","1582790","606862","570915","588386","1557716","599289","NA","NA","1557716","599289","611322","NA","1084785","NA","1565241","606818","588885","1557716","599289","1561692","600490","1283","pandora_session1","6","18425","6","experimental","yes","1920","350","11","17","15","14","6","16","23"
"100","100","3070.8333333333335","3070.8333333333335","#000000","no","xpyriment","legacy","legacy","0","b","LoSyn/HiSem","uniform","1","undefined","undefined","NA","1","1","NA","40","1","40","1","NA","0","0","0","40","0","0","40","1","0","0","42","0","0","1","40","1","40","1","40","1","0","NA","40","0","40","1","1","40","1","40","1","0","Thu Jul 14 12:44:26 2022","1000","1000","The main experiment item","yes","NA","Die Investorin erwartete, dass die Konzernchefin, die über die fragwürdige Personalrätin geklagt hatte, weiterhin gewinnbringend agierte, um schwarze Zahlen zu schreiben.","opensesame_pandora_session1.osexp","/home/vlab/Desktop/Pandora_Session1","no","Times New Roman","no","45","no","#ffffff","no","yes","1020","no","395","33","legacy","40","1","/home/vlab/Desktop/Pandora_Session1/logs/subject-2.csv","2","xpyriment","NA","Lentiform Loewenfeld","3.3.12b1","War es das Kind, das ein Buch las?","Das Kind mit der blauen Hose spielte im Sandkasten und die Mutter las ein Buch.","NA","0","j","NA","NA","1","space","space","space","space","j","f","NA","3976","NA","NA","199703","5166","560849","8769","4459","3976","1200","NA","2","legacy","1","1024","2","48000","-16","experiment","2","even","fem","1582793","600492","1586174","588885","NA","1283","NA","611322","1585676","1084940","601652","1585679","588390","1290","562145","1602636","606862","570915","588386","1557716","599289","NA","NA","1557716","599289","611322","NA","1084785","NA","1586174","606818","588885","1557716","599289","1561692","600490","1283","pandora_session1","6","18425","6","experimental","yes","1920","390","11","17","15","14","6","16","21"
"100","100","3070.8333333333335","3070.8333333333335","#000000","no","xpyriment","legacy","legacy","0","c","HiSyn/LoSem","uniform","1","undefined","undefined","NA","1","1","NA","41","1","41","1","NA","0","0","0","41","0","0","41","1","0","0","43","0","0","1","41","1","41","1","41","1","0","NA","41","0","41","1","1","41","1","41","1","0","Thu Jul 14 12:44:26 2022","1000","1000","The main experiment item","yes","NA","Der Auszubildende bemerkte, dass der Schreiner, der erwartet hatte, dass die Lieferung pünktlich war, laut ungehalten schimpfte, als der Termin verstrich.","opensesame_pandora_session1.osexp","/home/vlab/Desktop/Pandora_Session1","no","Times New Roman","no","45","no","#ffffff","no","yes","1020","no","395","54","legacy","41","1","/home/vlab/Desktop/Pandora_Session1/logs/subject-2.csv","2","xpyriment","NA","Lentiform Loewenfeld","3.3.12b1","War es das Kind, das ein Buch las?","Das Kind mit der blauen Hose spielte im Sandkasten und die Mutter las ein Buch.","NA","0","j","NA","NA","1","space","space","space","space","j","f","NA","3976","NA","NA","199703","5166","560849","8769","4459","3976","1200","NA","2","legacy","1","1024","2","48000","-16","experiment","2","even","masc","1602639","600492","1606019","588885","NA","1283","NA","611322","1605520","1084940","601652","1605523","588390","1290","562145","1622242","606862","570915","588386","1557716","599289","NA","NA","1557716","599289","611322","NA","1084785","NA","1606019","606818","588885","1557716","599289","1561692","600490","1283","pandora_session1","6","18425","6","experimental","yes","1920","390","12","18","16","15","6","17","21"
"100","100","2960.4285714285716","2960.4285714285716","#000000","no","xpyriment","legacy","legacy","0","f","filler","uniform","1","undefined","undefined","f","1","1","NA","42","1","42","1","NA","0","0","0","42","0","0","42","1","0","0","44","0","0","1","42","1","42","1","42","1","0","NA","42","0","42","1","1","42","1","42","1","0","Thu Jul 14 12:44:26 2022","1000","1000","The main experiment item","yes","War die Taschenlampe klein?","Die Biologin, der kein Arbeitsplatz zugewiesen worden war, durchsuchte den Keller des Instituts mit der großen Taschenlampe nach einem Mikroskop.","opensesame_pandora_session1.osexp","/home/vlab/Desktop/Pandora_Session1","no","Times New Roman","no","45","no","#ffffff","no","yes","1020","yes","395","131","legacy","42","1","/home/vlab/Desktop/Pandora_Session1/logs/subject-2.csv","NA","xpyriment","filler_question","Lentiform Loewenfeld","3.3.12b1","War es das Kind, das ein Buch las?","Das Kind mit der blauen Hose spielte im Sandkasten und die Mutter las ein Buch.","filler_question","0","f","NA","NA","1","space","space","space","space","f","f","NA","2298","NA","NA","199703","5166","560849","8769","4459","2298","1200","NA","2","legacy","1","1024","2","48000","-16","experiment","2","even","filler","1622246","600492","1625546","588885","NA","1283","NA","611322","1625048","1084940","601652","1625051","588390","1290","562145","1642251","606862","570915","588386","1639951","599289","NA","NA","1639952","599289","611322","NA","1084785","NA","1625546","606818","588885","1639951","599289","1642251","600490","1283","pandora_session1","7","20723","7","filler","yes","1920","390","filler","filler","filler","filler","filler","filler","20"
"87.5","87.5","2974.375","2974.375","#000000","no","xpyriment","legacy","legacy","0","d","HiSyn/HiSem","uniform","0","undefined","undefined","f","0","1","NA","43","1","43","1","NA","0","0","0","43","0","0","43","1","0","0","45","0","0","1","43","1","43","1","43","1","0","NA","43","0","43","1","1","43","1","43","1","0","Thu Jul 14 12:44:26 2022","1000","1000","The main experiment item","yes","Vermutete es der Mitarbeiter?","Der Chefredakteur vermutete, dass der Mitarbeiter, der erfahren hatte, dass der Erpresser erfunden war, auch gelegentlich schwindelte, um interessantere Artikel zu schreiben.","opensesame_pandora_session1.osexp","/home/vlab/Desktop/Pandora_Session1","no","Times New Roman","no","45","no","#ffffff","no","yes","1020","yes","395","11","legacy","43","1","/home/vlab/Desktop/Pandora_Session1/logs/subject-2.csv","2","xpyriment","target","Lentiform Loewenfeld","3.3.12b1","War es das Kind, das ein Buch las?","Das Kind mit der blauen Hose spielte im Sandkasten und die Mutter las ein Buch.","intro_verb","0","j","NA","NA","1","space","space","space","space","j","f","NA","3072","NA","NA","199703","5166","560849","8769","4459","3072","1200","NA","2","legacy","1","1024","2","48000","-16","experiment","2","even","masc","1642253","600492","1645734","588885","NA","1283","NA","611322","1645235","1084940","601652","1645239","588390","1290","562145","1665747","606862","570915","588386","1662675","599289","NA","NA","1662675","599289","611322","NA","1084785","NA","1645734","606818","588885","1662675","599289","1665747","600490","1283","pandora_session1","7","23795","8","experimental","yes","1920","390","12","18","16","15","6","17","22"
"87.5","87.5","2974.375","2974.375","#000000","no","xpyriment","legacy","legacy","0","a","LoSyn/LoSem","uniform","0","undefined","undefined","NA","0","1","NA","44","1","44","1","NA","0","0","0","44","0","0","44","1","0","0","46","0","0","1","44","1","44","1","44","1","0","NA","44","0","44","1","1","44","1","44","1","0","Thu Jul 14 12:44:26 2022","1000","1000","The main experiment item","yes","NA","Der Projektmanager ahnte, dass der Programmierer, der über den stressigen Auftrag gelästert hatte, einfach maßlos übertrieb, um sich aus der Verantwortung zu ziehen.","opensesame_pandora_session1.osexp","/home/vlab/Desktop/Pandora_Session1","no","Times New Roman","no","45","no","#ffffff","no","yes","1020","no","395","32","legacy","44","1","/home/vlab/Desktop/Pandora_Session1/logs/subject-2.csv","2","xpyriment","NA","Lentiform Loewenfeld","3.3.12b1","War es das Kind, das ein Buch las?","Das Kind mit der blauen Hose spielte im Sandkasten und die Mutter las ein Buch.","NA","0","j","NA","NA","1","space","space","space","space","j","f","NA","3072","NA","NA","199703","5166","560849","8769","4459","3072","1200","NA","2","legacy","1","1024","2","48000","-16","experiment","2","even","masc","1665750","600492","1669298","588885","NA","1283","NA","611322","1668800","1084940","601652","1668803","588390","1290","562145","1686968","606862","570915","588386","1662675","599289","NA","NA","1662675","599289","611322","NA","1084785","NA","1669298","606818","588885","1662675","599289","1665747","600490","1283","pandora_session1","7","23795","8","experimental","yes","1920","330","11","17","15","14","6","16","23"
"87.5","87.5","2974.375","2974.375","#000000","no","xpyriment","legacy","legacy","0","f","filler","uniform","0","undefined","undefined","NA","0","1","NA","45","1","45","1","NA","0","0","0","45","0","0","45","1","0","0","47","0","0","1","45","1","45","1","45","1","0","NA","45","0","45","1","1","45","1","45","1","0","Thu Jul 14 12:44:26 2022","1000","1000","The main experiment item","yes","NA","Sie träumte davon, dass der arrogante Dozent, der sich vor dem Kollegium gern aufgespielte, plötzlich einfach gefeuert werden würde.","opensesame_pandora_session1.osexp","/home/vlab/Desktop/Pandora_Session1","no","Times New Roman","no","45","no","#ffffff","no","yes","1020","no","395","147","legacy","45","1","/home/vlab/Desktop/Pandora_Session1/logs/subject-2.csv","NA","xpyriment","filler_question","Lentiform Loewenfeld","3.3.12b1","War es das Kind, das ein Buch las?","Das Kind mit der blauen Hose spielte im Sandkasten und die Mutter las ein Buch.","filler_question","0","j","NA","NA","1","space","space","space","space","j","f","NA","3072","NA","NA","199703","5166","560849","8769","4459","3072","1200","NA","2","legacy","1","1024","2","48000","-16","experiment","2","even","filler","1686972","600492","1690200","588885","NA","1283","NA","611322","1689702","1084940","601652","1689705","588390","1290","562145","1703766","606862","570915","588386","1662675","599289","NA","NA","1662675","599289","611322","NA","1084785","NA","1690200","606818","588885","1662675","599289","1665747","600490","1283","pandora_session1","7","23795","8","filler","yes","1920","310","filler","filler","filler","filler","filler","filler","19"
"87.5","87.5","2974.375","2974.375","#000000","no","xpyriment","legacy","legacy","0","d","HiSyn/HiSem","uniform","0","undefined","undefined","NA","0","1","NA","46","1","46","1","NA","0","0","0","46","0","0","46","1","0","0","48","0","0","1","46","1","46","1","46","1","0","NA","46","0","46","1","1","46","1","46","1","0","Thu Jul 14 12:44:26 2022","1000","1000","The main experiment item","yes","NA","Der Komiker kritisierte, dass der Manager, der gehört hatte, dass der Konkurrent einfallslos war, häufig ausgiebig lästerte, um von eigenen Fehlern abzulenken.","opensesame_pandora_session1.osexp","/home/vlab/Desktop/Pandora_Session1","no","Times New Roman","no","45","no","#ffffff","no","yes","1020","no","395","27","legacy","46","1","/home/vlab/Desktop/Pandora_Session1/logs/subject-2.csv","2","xpyriment","NA","Lentiform Loewenfeld","3.3.12b1","War es das Kind, das ein Buch las?","Das Kind mit der blauen Hose spielte im Sandkasten und die Mutter las ein Buch.","NA","0","j","NA","NA","1","space","space","space","space","j","f","NA","3072","NA","NA","199703","5166","560849","8769","4459","3072","1200","NA","2","legacy","1","1024","2","48000","-16","experiment","2","even","masc","1703770","600492","1707224","588885","NA","1283","NA","611322","1706726","1084940","601652","1706729","588390","1290","562145","1724140","606862","570915","588386","1662675","599289","NA","NA","1662675","599289","611322","NA","1084785","NA","1707224","606818","588885","1662675","599289","1665747","600490","1283","pandora_session1","7","23795","8","experimental","yes","1920","410","12","18","16","15","6","17","22"
"87.5","87.5","2974.375","2974.375","#000000","no","xpyriment","legacy","legacy","0","d","HiSyn/HiSem","uniform","0","undefined","undefined","NA","0","1","NA","47","1","47","1","NA","0","0","0","47","0","0","47","1","0","0","49","0","0","1","47","1","47","1","47","1","0","NA","47","0","47","1","1","47","1","47","1","0","Thu Jul 14 12:44:26 2022","1000","1000","The main experiment item","yes","NA","Die Verkäuferin erwartete, dass die Frau, die gehofft hatte, dass der Schuster günstig war, noch abends wiederkam, um ihre Schuhe abzuholen.","opensesame_pandora_session1.osexp","/home/vlab/Desktop/Pandora_Session1","no","Times New Roman","no","45","no","#ffffff","no","yes","1020","no","395","31","legacy","47","1","/home/vlab/Desktop/Pandora_Session1/logs/subject-2.csv","2","xpyriment","NA","Lentiform Loewenfeld","3.3.12b1","War es das Kind, das ein Buch las?","Das Kind mit der blauen Hose spielte im Sandkasten und die Mutter las ein Buch.","NA","0","j","NA","NA","1","space","space","space","space","j","f","NA","3072","NA","NA","199703","5166","560849","8769","4459","3072","1200","NA","2","legacy","1","1024","2","48000","-16","experiment","2","even","fem","1724143","600492","1727533","588885","NA","1283","NA","611322","1727033","1084940","601652","1727038","588390","1290","562145","1743596","606862","570915","588386","1662675","599289","NA","NA","1662675","599289","611322","NA","1084785","NA","1727533","606818","588885","1662675","599289","1665747","600490","1283","pandora_session1","7","23795","8","experimental","yes","1920","390","12","18","16","15","6","17","21"
"88.88888888888889","88.88888888888889","2983.5555555555557","2983.5555555555557","#000000","no","xpyriment","legacy","legacy","0","c","HiSyn/LoSem","uniform","1","undefined","undefined","j","1","1","NA","48","1","48","1","NA","0","0","0","48","0","0","48","1","0","0","50","0","0","1","48","1","48","1","48","1","0","NA","48","0","48","1","1","48","1","48","1","0","Thu Jul 14 12:44:26 2022","1000","1000","The main experiment item","yes","War es die Studentin, die sehr sorgfältig argumentierte?","Der Professor bemerkte, dass die Studentin, die argumentiert hatte, dass das Experiment umstritten war, sehr sorgfältig argumentierte, um das Gremium zu überzeugen.","opensesame_pandora_session1.osexp","/home/vlab/Desktop/Pandora_Session1","no","Times New Roman","no","45","no","#ffffff","no","yes","1020","yes","395","2","legacy","48","1","/home/vlab/Desktop/Pandora_Session1/logs/subject-2.csv","2","xpyriment","target","Lentiform Loewenfeld","3.3.12b1","War es das Kind, das ein Buch las?","Das Kind mit der blauen Hose spielte im Sandkasten und die Mutter las ein Buch.","main_verb","0","j","NA","NA","1","space","space","space","space","j","f","NA","3057","NA","NA","199703","5166","560849","8769","4459","3057","1200","NA","2","legacy","1","1024","2","48000","-16","experiment","2","even","fem","1743600","600492","1747063","588885","NA","1283","NA","611322","1746565","1084940","601652","1746568","588390","1290","562145","1767042","606862","570915","588386","1763984","599289","NA","NA","1763984","599289","611322","NA","1084785","NA","1747063","606818","588885","1763984","599289","1767041","600490","1283","pandora_session1","8","26852","9","experimental","yes","1920","410","12","18","16","15","6","17","22"
"100","100","2416","2416","#000000","no","xpyriment","legacy","legacy","0","c","HiSyn/LoSem","uniform","1","undefined","undefined","f","1","1","NA","49","1","49","1","NA","0","0","0","49","0","0","49","1","0","0","51","0","0","1","49","1","49","1","49","1","0","NA","49","0","49","1","1","49","1","49","1","0","Thu Jul 14 12:44:26 2022","1000","1000","The main experiment item","yes","War es der Reporter, der gemeckert hatte?","Der Reporter hörte, dass der Boxer, der gemeckert hatte, dass der Kampf unfair war, angeblich häufig schummelte, um den Sieg zu holen.","opensesame_pandora_session1.osexp","/home/vlab/Desktop/Pandora_Session1","no","Times New Roman","no","45","no","#ffffff","no","yes","1020","yes","395","18","legacy","49","1","/home/vlab/Desktop/Pandora_Session1/logs/subject-2.csv","2","xpyriment","intro","Lentiform Loewenfeld","3.3.12b1","War es das Kind, das ein Buch las?","Das Kind mit der blauen Hose spielte im Sandkasten und die Mutter las ein Buch.","relcl_verb","0","f","NA","NA","1","space","space","space","space","f","f","NA","2416","NA","NA","199703","5166","560849","8769","4459","2416","1200","NA","2","legacy","1","1024","2","48000","-16","experiment","2","even","masc","1767044","600492","1770509","588885","NA","1283","NA","611322","1770010","1084940","601652","1770014","588390","1290","562145","1789466","606862","570915","588386","1787049","599289","NA","NA","1787049","599289","611322","NA","1084785","NA","1770509","606818","588885","1787049","599289","1789466","600490","1283","pandora_session1","1","2416","1","experimental","yes","1920","310","12","18","16","15","6","17","22"
"100","100","2011","2011","#000000","no","xpyriment","legacy","legacy","0","f","filler","uniform","1","undefined","undefined","f","1","1","NA","50","1","50","1","NA","0","0","0","50","1","0","50","1","0","0","52","0","0","1","50","1","50","1","50","1","0","NA","50","0","50","1","1","50","1","50","1","0","Thu Jul 14 12:44:26 2022","1000","1000","The main experiment item","yes","War die Gießkanne groß?","Der Gärtner goss den großen Kaktus, der im Wintergarten stand, mit der winzigen Gießkanne, da er nicht viel Wasser brauchte.","opensesame_pandora_session1.osexp","/home/vlab/Desktop/Pandora_Session1","no","Times New Roman","no","45","no","#ffffff","no","yes","1020","yes","395","130","legacy","50","1","/home/vlab/Desktop/Pandora_Session1/logs/subject-2.csv","NA","xpyriment","filler_question","Lentiform Loewenfeld","3.3.12b1","War es das Kind, das ein Buch las?","Das Kind mit der blauen Hose spielte im Sandkasten und die Mutter las ein Buch.","filler_question","0","f","NA","NA","1","space","space","space","space","f","f","NA","2011","NA","NA","172759","5166","560849","8769","4459","2011","1200","NA","2","legacy","1","1024","2","48000","-16","experiment","2","even","filler","1789468","600492","1965694","588885","NA","1283","NA","611322","1965196","1790623","601652","1965199","588390","1290","562145","1981689","606862","570915","588386","1979678","599289","NA","NA","1979678","599289","611322","NA","1790468","NA","1965694","606818","588885","1979678","599289","1981689","600490","1283","pandora_session1","1","2011","1","filler","yes","1920","370","filler","filler","filler","filler","filler","filler","20"
"100","100","2011","2011","#000000","no","xpyriment","legacy","legacy","0","a","LoSyn/LoSem","uniform","1","undefined","undefined","NA","1","1","NA","51","1","51","1","NA","0","0","0","51","1","0","51","1","0","0","53","0","0","1","51","1","51","1","51","1","0","NA","51","0","51","1","1","51","1","51","1","0","Thu Jul 14 12:44:26 2022","1000","1000","The main experiment item","yes","NA","Der Oppositionsführer behauptete, dass der Präsident, der von dem gescheiterten Gespräch gewusst hatte, nur erneut kandidierte, um seine Immunität zu behalten.","opensesame_pandora_session1.osexp","/home/vlab/Desktop/Pandora_Session1","no","Times New Roman","no","45","no","#ffffff","no","yes","1020","no","395","48","legacy","51","1","/home/vlab/Desktop/Pandora_Session1/logs/subject-2.csv","2","xpyriment","NA","Lentiform Loewenfeld","3.3.12b1","War es das Kind, das ein Buch las?","Das Kind mit der blauen Hose spielte im Sandkasten und die Mutter las ein Buch.","NA","0","f","NA","NA","1","space","space","space","space","f","f","NA","2011","NA","NA","172759","5166","560849","8769","4459","2011","1200","NA","2","legacy","1","1024","2","48000","-16","experiment","2","even","masc","1981692","600492","1985072","588885","NA","1283","NA","611322","1984573","1790623","601652","1984577","588390","1290","562145","2001454","606862","570915","588386","1979678","599289","NA","NA","1979678","599289","611322","NA","1790468","NA","1985072","606818","588885","1979678","599289","1981689","600490","1283","pandora_session1","1","2011","1","experimental","yes","1920","370","11","17","15","14","6","16","21"
"100","100","2011","2011","#000000","no","xpyriment","legacy","legacy","0","c","HiSyn/LoSem","uniform","1","undefined","undefined","NA","1","1","NA","52","1","52","1","NA","0","0","0","52","1","0","52","1","0","0","54","0","0","1","52","1","52","1","52","1","0","NA","52","0","52","1","1","52","1","52","1","0","Thu Jul 14 12:44:26 2022","1000","1000","The main experiment item","yes","NA","Die Rentnerin glaubte, dass der Verkäufer, der erzählt hatte, dass der Umtausch kulant war, sicherlich gern half, wenn Probleme aufträten.","opensesame_pandora_session1.osexp","/home/vlab/Desktop/Pandora_Session1","no","Times New Roman","no","45","no","#ffffff","no","yes","1020","no","395","46","legacy","52","1","/home/vlab/Desktop/Pandora_Session1/logs/subject-2.csv","2","xpyriment","NA","Lentiform Loewenfeld","3.3.12b1","War es das Kind, das ein Buch las?","Das Kind mit der blauen Hose spielte im Sandkasten und die Mutter las ein Buch.","NA","0","f","NA","NA","1","space","space","space","space","f","f","NA","2011","NA","NA","172759","5166","560849","8769","4459","2011","1200","NA","2","legacy","1","1024","2","48000","-16","experiment","2","even","masc","2001458","600492","2004762","588885","NA","1283","NA","611322","2004262","1790623","601652","2004267","588390","1290","562145","2020253","606862","570915","588386","1979678","599289","NA","NA","1979678","599289","611322","NA","1790468","NA","2004762","606818","588885","1979678","599289","1981689","600490","1283","pandora_session1","1","2011","1","experimental","yes","1920","390","12","18","16","15","6","17","20"
"100","100","2011","2011","#000000","no","xpyriment","legacy","legacy","0","d","HiSyn/HiSem","uniform","1","undefined","undefined","NA","1","1","NA","53","1","53","1","NA","0","0","0","53","1","0","53","1","0","0","55","0","0","1","53","1","53","1","53","1","0","NA","53","0","53","1","1","53","1","53","1","0","Thu Jul 14 12:44:26 2022","1000","1000","The main experiment item","yes","NA","Der Onkel befürwortete, dass die Nichte, die erwartet hatte, dass das Geburtstagskind ausgelassen war, einfach allein tanzte, weil ihr Freund nicht wollte.","opensesame_pandora_session1.osexp","/home/vlab/Desktop/Pandora_Session1","no","Times New Roman","no","45","no","#ffffff","no","yes","1020","no","395","43","legacy","53","1","/home/vlab/Desktop/Pandora_Session1/logs/subject-2.csv","2","xpyriment","NA","Lentiform Loewenfeld","3.3.12b1","War es das Kind, das ein Buch las?","Das Kind mit der blauen Hose spielte im Sandkasten und die Mutter las ein Buch.","NA","0","f","NA","NA","1","space","space","space","space","f","f","NA","2011","NA","NA","172759","5166","560849","8769","4459","2011","1200","NA","2","legacy","1","1024","2","48000","-16","experiment","2","even","fem","2020256","600492","2023729","588885","NA","1283","NA","611322","2023229","1790623","601652","2023233","588390","1290","562145","2040624","606862","570915","588386","1979678","599289","NA","NA","1979678","599289","611322","NA","1790468","NA","2023729","606818","588885","1979678","599289","1981689","600490","1283","pandora_session1","1","2011","1","experimental","yes","1920","330","12","18","16","15","6","17","22"
"100","100","2011","2011","#000000","no","xpyriment","legacy","legacy","0","f","filler","uniform","1","undefined","undefined","NA","1","1","NA","54","1","54","1","NA","0","0","0","54","1","0","54","1","0","0","56","0","0","1","54","1","54","1","54","1","0","NA","54","0","54","1","1","54","1","54","1","0","Thu Jul 14 12:44:26 2022","1000","1000","The main experiment item","yes","NA","Er befürchtete, dass der vorlaute Teenager, der sich nach der Standpauke klammheimlich verzogen hatte, sogar den Skatepark meiden würde.","opensesame_pandora_session1.osexp","/home/vlab/Desktop/Pandora_Session1","no","Times New Roman","no","45","no","#ffffff","no","yes","1020","no","395","145","legacy","54","1","/home/vlab/Desktop/Pandora_Session1/logs/subject-2.csv","NA","xpyriment","filler_question","Lentiform Loewenfeld","3.3.12b1","War es das Kind, das ein Buch las?","Das Kind mit der blauen Hose spielte im Sandkasten und die Mutter las ein Buch.","filler_question","0","f","NA","NA","1","space","space","space","space","f","f","NA","2011","NA","NA","172759","5166","560849","8769","4459","2011","1200","NA","2","legacy","1","1024","2","48000","-16","experiment","2","even","filler","2040627","600492","2043866","588885","NA","1283","NA","611322","2043367","1790623","601652","2043371","588390","1290","562145","2057512","606862","570915","588386","1979678","599289","NA","NA","1979678","599289","611322","NA","1790468","NA","2043866","606818","588885","1979678","599289","1981689","600490","1283","pandora_session1","1","2011","1","filler","yes","1920","310","filler","filler","filler","filler","filler","filler","19"
"50","50","3190","3190","#000000","no","xpyriment","legacy","legacy","0","c","HiSyn/LoSem","uniform","0","undefined","undefined","j","0","1","NA","55","1","55","1","NA","0","0","0","55","1","0","55","1","0","0","57","0","0","1","55","1","55","1","55","1","0","NA","55","0","55","1","1","55","1","55","1","0","Thu Jul 14 12:44:26 2022","1000","1000","The main experiment item","yes","War es der Lotse, der das veranlasste?","Der Lotse veranlasste, dass die Pilotin, die erfahren hatte, dass das Gepäck verspätet war, noch nicht startete, obwohl die Zeit drängte.","opensesame_pandora_session1.osexp","/home/vlab/Desktop/Pandora_Session1","no","Times New Roman","no","45","no","#ffffff","no","yes","1020","yes","395","14","legacy","55","1","/home/vlab/Desktop/Pandora_Session1/logs/subject-2.csv","2","xpyriment","intro","Lentiform Loewenfeld","3.3.12b1","War es das Kind, das ein Buch las?","Das Kind mit der blauen Hose spielte im Sandkasten und die Mutter las ein Buch.","intro_verb","0","f","NA","NA","1","space","space","space","space","f","f","NA","4369","NA","NA","172759","5166","560849","8769","4459","4369","1200","NA","2","legacy","1","1024","2","48000","-16","experiment","2","even","fem","2057515","600492","2060898","588885","NA","1283","NA","611322","2060398","1790623","601652","2060402","588390","1290","562145","2081216","606862","570915","588386","2076845","599289","NA","NA","2076846","599289","611322","NA","1790468","NA","2060898","606818","588885","2076846","599289","2081216","600490","1283","pandora_session1","1","6380","2","experimental","yes","1920","350","12","18","16","15","6","17","21"
"66.66666666666667","66.66666666666667","2902.6666666666665","2902.6666666666665","#000000","no","xpyriment","legacy","legacy","0","a","LoSyn/LoSem","uniform","1","undefined","undefined","j","1","1","NA","56","1","56","1","NA","0","0","0","56","1","0","56","1","0","0","58","0","0","1","56","1","56","1","56","1","0","NA","56","0","56","1","1","56","1","56","1","0","Thu Jul 14 12:44:26 2022","1000","1000","The main experiment item","yes","War es der Schüler, der aggressiv brüllte?","Der Lehrer vermutete, dass der Schüler, der von dem unangenehmen Ausflug berichtet hatte, mehrfach aggressiv brüllte, um einen Streit zu provozieren.","opensesame_pandora_session1.osexp","/home/vlab/Desktop/Pandora_Session1","no","Times New Roman","no","45","no","#ffffff","no","yes","1020","yes","395","4","legacy","56","1","/home/vlab/Desktop/Pandora_Session1/logs/subject-2.csv","2","xpyriment","target","Lentiform Loewenfeld","3.3.12b1","War es das Kind, das ein Buch las?","Das Kind mit der blauen Hose spielte im Sandkasten und die Mutter las ein Buch.","main_verb","0","j","NA","NA","1","space","space","space","space","j","f","NA","2328","NA","NA","172759","5166","560849","8769","4459","2328","1200","NA","2","legacy","1","1024","2","48000","-16","experiment","2","even","masc","2081218","600492","2084605","588885","NA","1283","NA","611322","2084106","1790623","601652","2084110","588390","1290","562145","2103103","606862","570915","588386","2100775","599289","NA","NA","2100775","599289","611322","NA","1790468","NA","2084605","606818","588885","2100775","599289","2103103","600490","1283","pandora_session1","2","8708","3","experimental","yes","1920","430","11","17","15","14","6","16","21"
"75","75","2991.5","2991.5","#000000","no","xpyriment","legacy","legacy","0","f","filler","uniform","1","undefined","undefined","j","1","1","NA","57","1","57","1","NA","0","0","0","57","1","0","57","1","0","0","59","0","0","1","57","1","57","1","57","1","0","NA","57","0","57","1","1","57","1","57","1","0","Thu Jul 14 12:44:26 2022","1000","1000","The main experiment item","yes","Hatte der Partner den abscheulichen Täter erkannt?","Der Polizist fand heraus, dass sein Partner, der den abscheulichen Täter erkannt hatte, erneut ermittelte, weil es noch Unklarheiten gab.","opensesame_pandora_session1.osexp","/home/vlab/Desktop/Pandora_Session1","no","Times New Roman","no","45","no","#ffffff","no","yes","1020","yes","395","122","legacy","57","1","/home/vlab/Desktop/Pandora_Session1/logs/subject-2.csv","NA","xpyriment","filler_question","Lentiform Loewenfeld","3.3.12b1","War es das Kind, das ein Buch las?","Das Kind mit der blauen Hose spielte im Sandkasten und die Mutter las ein Buch.","filler_question","0","j","NA","NA","1","space","space","space","space","j","f","NA","3258","NA","NA","172759","5166","560849","8769","4459","3258","1200","NA","2","legacy","1","1024","2","48000","-16","experiment","2","even","filler","2103106","600492","2106412","588885","NA","1283","NA","611322","2105914","1790623","601652","2105917","588390","1290","562145","2123912","606862","570915","588386","2120654","599289","NA","NA","2120654","599289","611322","NA","1790468","NA","2106412","606818","588885","2120654","599289","2123912","600490","1283","pandora_session1","3","11966","4","filler","yes","1920","270","filler","filler","filler","filler","filler","filler","20"
